# Results on Tuesday November 05 2019 15:23:39 UTC.
# USER AGENT: Mozilla/5.0 (Windows NT 10.0; WOW64; Trident/7.0; rv:11.0) like Gecko
# Design number was non-random = 1
#
# Columns below this comment are as follows:
# 1. Time results were received.
# 2. MD5 hash of participant's IP address.
# 3. Controller name.
# 4. Item number.
# 5. Element number.
# 6. Type.
# 7. Group.
# 8. Field name.
# 9. Field value.
1572967420,dee909ab4796a05127167fd77d641149,NewForm,0,0,agreement,NULL,,yes
1572967420,dee909ab4796a05127167fd77d641149,NewForm,0,0,agreement,NULL,_REACTION_TIME_,9076
1572967420,dee909ab4796a05127167fd77d641149,NewForm,1,0,instructions1,NULL,,yes
1572967420,dee909ab4796a05127167fd77d641149,NewForm,1,0,instructions1,NULL,_REACTION_TIME_,1850
# Columns below this comment are as follows:
# 1. Time results were received.
# 2. MD5 hash of participant's IP address.
# 3. Controller name.
# 4. Item number.
# 5. Element number.
# 6. Type.
# 7. Group.
# 8. Question (NULL if none).
# 9. Answer.
# 10. Whether or not answer was correct (NULL if N/A).
# 11. Time taken to answer.
1572967420,dee909ab4796a05127167fd77d641149,Question2,5,0,practice-some,NULL,<head><style>div {background-color: #dbd9d9; width: 300px; border: 7px solid #3FB8AF; padding: 20px; margin: 20px;}</style></head><body><div><i><font size='4'> 20% of the glerbs are fizda.</font></i></div><h2>Some of the glerbs are fizda.</h2></body>,True,NULL,3266
1572967420,dee909ab4796a05127167fd77d641149,Question2,6,0,practice-all,NULL,<head><style>div {background-color: #dbd9d9; width: 300px; border: 7px solid #3FB8AF; padding: 20px; margin: 20px;}</style></head><body><div><i><font size='4'> 82% of the thonks are crangly.</font></i></div><h2>All of the thonks are crangly.</h2></body>,False,NULL,2123
1572967420,dee909ab4796a05127167fd77d641149,Question2,100,0,Test-All-76-puctor-recure,NULL,<head><style>div {background-color: #dbd9d9; width: 300px; border: 7px solid #3FB8AF; padding: 20px; margin: 20px;}</style></head><body><center><div><i><font size='4'>76% of the puctors are recure.</font></i></div></center><h2>All of the puctors are recure.</h2></body>,True,NULL,6043
1572967420,dee909ab4796a05127167fd77d641149,Question2,15,0,Test-More-than-half-17-clidge-hensly,NULL,<head><style>div {background-color: #dbd9d9; width: 300px; border: 7px solid #3FB8AF; padding: 20px; margin: 20px;}</style></head><body><center><div><i><font size='4'>17% of the clidges are hensly.</font></i></div></center><h2>More than half of the clidges are hensly.</h2></body>,True,NULL,3419
1572967420,dee909ab4796a05127167fd77d641149,Question2,98,0,Test-All-81-jallem-sildal,NULL,<head><style>div {background-color: #dbd9d9; width: 300px; border: 7px solid #3FB8AF; padding: 20px; margin: 20px;}</style></head><body><center><div><i><font size='4'>81% of the jallems are sildal.</font></i></div></center><h2>All of the jallems are sildal.</h2></body>,True,NULL,6882
1572967420,dee909ab4796a05127167fd77d641149,Question2,77,0,Test-Some-49-shurrie-preser,NULL,<head><style>div {background-color: #dbd9d9; width: 300px; border: 7px solid #3FB8AF; padding: 20px; margin: 20px;}</style></head><body><center><div><i><font size='4'>49% of the shurries are preser.</font></i></div></center><h2>Some of the shurries are preser.</h2></body>,True,NULL,2973
1572967420,dee909ab4796a05127167fd77d641149,Question2,81,0,Test-Some-59-umpond-marire,NULL,<head><style>div {background-color: #dbd9d9; width: 300px; border: 7px solid #3FB8AF; padding: 20px; margin: 20px;}</style></head><body><center><div><i><font size='4'>59% of the umponds are marire.</font></i></div></center><h2>Some of the umponds are marire.</h2></body>,True,NULL,7171
1572967420,dee909ab4796a05127167fd77d641149,Question2,115,0,Test-Some-Neg-29-coamin-mucond,NULL,<head><style>div {background-color: #dbd9d9; width: 300px; border: 7px solid #3FB8AF; padding: 20px; margin: 20px;}</style></head><body><center><div><i><font size='4'>29% of the coamins are mucond.</font></i></div></center><h2>It is not the case that some of the coamins are mucond.</h2></body>,False,NULL,6908
1572967420,dee909ab4796a05127167fd77d641149,Question2,106,0,Test-All-Neg-9-chadop-shaple,NULL,<head><style>div {background-color: #dbd9d9; width: 300px; border: 7px solid #3FB8AF; padding: 20px; margin: 20px;}</style></head><body><center><div><i><font size='4'>9% of the chadops are shaple.</font></i></div></center><h2>It is not the case that all of the chadops are shaple.</h2></body>,False,NULL,7610
1572967420,dee909ab4796a05127167fd77d641149,Question2,147,0,Test-Some-Neg-95-chevel-podden,NULL,<head><style>div {background-color: #dbd9d9; width: 300px; border: 7px solid #3FB8AF; padding: 20px; margin: 20px;}</style></head><body><center><div><i><font size='4'>95% of the chevels are podden.</font></i></div></center><h2>It is not the case that some of the chevels are podden.</h2></body>,False,NULL,1795
1572967420,dee909ab4796a05127167fd77d641149,Question2,57,0,Test-Some-16-puggle-entand,NULL,<head><style>div {background-color: #dbd9d9; width: 300px; border: 7px solid #3FB8AF; padding: 20px; margin: 20px;}</style></head><body><center><div><i><font size='4'>16% of the puggles are entand.</font></i></div></center><h2>Some of the puggles are entand.</h2></body>,True,NULL,2651
1572967420,dee909ab4796a05127167fd77d641149,Question2,29,0,Test-More-than-half-33-shurrie-preser,NULL,<head><style>div {background-color: #dbd9d9; width: 300px; border: 7px solid #3FB8AF; padding: 20px; margin: 20px;}</style></head><body><center><div><i><font size='4'>33% of the shurries are preser.</font></i></div></center><h2>More than half of the shurries are preser.</h2></body>,True,NULL,5115
1572967420,dee909ab4796a05127167fd77d641149,Question2,96,0,Test-All-77-boddle-molill,NULL,<head><style>div {background-color: #dbd9d9; width: 300px; border: 7px solid #3FB8AF; padding: 20px; margin: 20px;}</style></head><body><center><div><i><font size='4'>77% of the boddles are molill.</font></i></div></center><h2>All of the boddles are molill.</h2></body>,True,NULL,1373
1572967420,dee909ab4796a05127167fd77d641149,Question2,20,0,Test-More-than-half-29-coamin-mucond,NULL,<head><style>div {background-color: #dbd9d9; width: 300px; border: 7px solid #3FB8AF; padding: 20px; margin: 20px;}</style></head><body><center><div><i><font size='4'>29% of the coamins are mucond.</font></i></div></center><h2>More than half of the coamins are mucond.</h2></body>,True,NULL,1819
1572967420,dee909ab4796a05127167fd77d641149,Question2,118,0,Test-All-Neg-38-middor-drooty,NULL,<head><style>div {background-color: #dbd9d9; width: 300px; border: 7px solid #3FB8AF; padding: 20px; margin: 20px;}</style></head><body><center><div><i><font size='4'>38% of the middors are drooty.</font></i></div></center><h2>It is not the case that all of the middors are drooty.</h2></body>,False,NULL,1129
1572967420,dee909ab4796a05127167fd77d641149,Question2,97,0,Test-Some-76-jallem-sildal,NULL,<head><style>div {background-color: #dbd9d9; width: 300px; border: 7px solid #3FB8AF; padding: 20px; margin: 20px;}</style></head><body><center><div><i><font size='4'>76% of the jallems are sildal.</font></i></div></center><h2>Some of the jallems are sildal.</h2></body>,True,NULL,1172
1572967420,dee909ab4796a05127167fd77d641149,Question2,41,0,Test-More-than-half-68-pliper-sesare,NULL,<head><style>div {background-color: #dbd9d9; width: 300px; border: 7px solid #3FB8AF; padding: 20px; margin: 20px;}</style></head><body><center><div><i><font size='4'>68% of the plipers are sesare.</font></i></div></center><h2>More than half of the plipers are sesare.</h2></body>,True,NULL,972
1572967420,dee909ab4796a05127167fd77d641149,Question2,126,0,Test-All-Neg-44-monter-melelt,NULL,<head><style>div {background-color: #dbd9d9; width: 300px; border: 7px solid #3FB8AF; padding: 20px; margin: 20px;}</style></head><body><center><div><i><font size='4'>44% of the monters are melelt.</font></i></div></center><h2>It is not the case that all of the monters are melelt.</h2></body>,False,NULL,1020
1572967420,dee909ab4796a05127167fd77d641149,Question2,64,0,Test-All-6-clidge-hensly,NULL,<head><style>div {background-color: #dbd9d9; width: 300px; border: 7px solid #3FB8AF; padding: 20px; margin: 20px;}</style></head><body><center><div><i><font size='4'>6% of the clidges are hensly.</font></i></div></center><h2>All of the clidges are hensly.</h2></body>,True,NULL,715
1572967420,dee909ab4796a05127167fd77d641149,Question2,44,0,Test-More-than-half-77-pirter-secent,NULL,<head><style>div {background-color: #dbd9d9; width: 300px; border: 7px solid #3FB8AF; padding: 20px; margin: 20px;}</style></head><body><center><div><i><font size='4'>77% of the pirters are secent.</font></i></div></center><h2>More than half of the pirters are secent.</h2></body>,True,NULL,668
1572967420,dee909ab4796a05127167fd77d641149,Question2,121,0,Test-Some-Neg-31-zetten-unfobs,NULL,<head><style>div {background-color: #dbd9d9; width: 300px; border: 7px solid #3FB8AF; padding: 20px; margin: 20px;}</style></head><body><center><div><i><font size='4'>31% of the zettens are unfobs.</font></i></div></center><h2>It is not the case that some of the zettens are unfobs.</h2></body>,False,NULL,876
1572967420,dee909ab4796a05127167fd77d641149,Question2,61,0,Test-Some-15-mecket-plumry,NULL,<head><style>div {background-color: #dbd9d9; width: 300px; border: 7px solid #3FB8AF; padding: 20px; margin: 20px;}</style></head><body><center><div><i><font size='4'>15% of the meckets are plumry.</font></i></div></center><h2>Some of the meckets are plumry.</h2></body>,True,NULL,1236
1572967420,dee909ab4796a05127167fd77d641149,Question2,137,0,Test-Some-Neg-53-coppar-hunene,NULL,<head><style>div {background-color: #dbd9d9; width: 300px; border: 7px solid #3FB8AF; padding: 20px; margin: 20px;}</style></head><body><center><div><i><font size='4'>53% of the coppars are hunene.</font></i></div></center><h2>It is not the case that some of the coppars are hunene.</h2></body>,False,NULL,900
1572967420,dee909ab4796a05127167fd77d641149,Question2,105,0,Test-Some-Neg-18-chadop-shaple,NULL,<head><style>div {background-color: #dbd9d9; width: 300px; border: 7px solid #3FB8AF; padding: 20px; margin: 20px;}</style></head><body><center><div><i><font size='4'>18% of the chadops are shaple.</font></i></div></center><h2>It is not the case that some of the chadops are shaple.</h2></body>,False,NULL,668
1572967420,dee909ab4796a05127167fd77d641149,Question2,23,0,Test-More-than-half-46-ancit-smeath,NULL,<head><style>div {background-color: #dbd9d9; width: 300px; border: 7px solid #3FB8AF; padding: 20px; margin: 20px;}</style></head><body><center><div><i><font size='4'>46% of the ancits are smeath.</font></i></div></center><h2>More than half of the ancits are smeath.</h2></body>,True,NULL,804
1572967420,dee909ab4796a05127167fd77d641149,Question2,27,0,Test-More-than-half-34-fleeve-scalfs,NULL,<head><style>div {background-color: #dbd9d9; width: 300px; border: 7px solid #3FB8AF; padding: 20px; margin: 20px;}</style></head><body><center><div><i><font size='4'>34% of the fleeves are scalfs.</font></i></div></center><h2>More than half of the fleeves are scalfs.</h2></body>,True,NULL,459
1572967420,dee909ab4796a05127167fd77d641149,Question2,82,0,Test-All-52-umpond-marire,NULL,<head><style>div {background-color: #dbd9d9; width: 300px; border: 7px solid #3FB8AF; padding: 20px; margin: 20px;}</style></head><body><center><div><i><font size='4'>52% of the umponds are marire.</font></i></div></center><h2>All of the umponds are marire.</h2></body>,True,NULL,940
1572967420,dee909ab4796a05127167fd77d641149,Question2,55,0,Test-Some-19-kustle-reshix,NULL,<head><style>div {background-color: #dbd9d9; width: 300px; border: 7px solid #3FB8AF; padding: 20px; margin: 20px;}</style></head><body><center><div><i><font size='4'>19% of the kustles are reshix.</font></i></div></center><h2>Some of the kustles are reshix.</h2></body>,True,NULL,700
1572967420,dee909ab4796a05127167fd77d641149,Question2,119,0,Test-Some-Neg-37-pengyl-sedest,NULL,<head><style>div {background-color: #dbd9d9; width: 300px; border: 7px solid #3FB8AF; padding: 20px; margin: 20px;}</style></head><body><center><div><i><font size='4'>37% of the pengyls are sedest.</font></i></div></center><h2>It is not the case that some of the pengyls are sedest.</h2></body>,False,NULL,739
1572967420,dee909ab4796a05127167fd77d641149,Question2,135,0,Test-Some-Neg-69-bamet-unzast,NULL,<head><style>div {background-color: #dbd9d9; width: 300px; border: 7px solid #3FB8AF; padding: 20px; margin: 20px;}</style></head><body><center><div><i><font size='4'>69% of the bamets are unzast.</font></i></div></center><h2>It is not the case that some of the bamets are unzast.</h2></body>,False,NULL,779
1572967420,dee909ab4796a05127167fd77d641149,Question2,85,0,Test-Some-68-birler-enciad,NULL,<head><style>div {background-color: #dbd9d9; width: 300px; border: 7px solid #3FB8AF; padding: 20px; margin: 20px;}</style></head><body><center><div><i><font size='4'>68% of the birlers are enciad.</font></i></div></center><h2>Some of the birlers are enciad.</h2></body>,True,NULL,1004
1572967420,dee909ab4796a05127167fd77d641149,Question2,40,0,Test-More-than-half-52-bamet-unzast,NULL,<head><style>div {background-color: #dbd9d9; width: 300px; border: 7px solid #3FB8AF; padding: 20px; margin: 20px;}</style></head><body><center><div><i><font size='4'>52% of the bamets are unzast.</font></i></div></center><h2>More than half of the bamets are unzast.</h2></body>,True,NULL,2180
1572967420,dee909ab4796a05127167fd77d641149,Question2,73,0,Test-Some-48-hadder-ollidy,NULL,<head><style>div {background-color: #dbd9d9; width: 300px; border: 7px solid #3FB8AF; padding: 20px; margin: 20px;}</style></head><body><center><div><i><font size='4'>48% of the hadders are ollidy.</font></i></div></center><h2>Some of the hadders are ollidy.</h2></body>,True,NULL,540
1572967420,dee909ab4796a05127167fd77d641149,Question2,94,0,Test-All-79-pobbit-spippy,NULL,<head><style>div {background-color: #dbd9d9; width: 300px; border: 7px solid #3FB8AF; padding: 20px; margin: 20px;}</style></head><body><center><div><i><font size='4'>79% of the pobbits are spippy.</font></i></div></center><h2>All of the pobbits are spippy.</h2></body>,True,NULL,796
1572967420,dee909ab4796a05127167fd77d641149,Question2,72,0,Test-All-40-ancit-smeath,NULL,<head><style>div {background-color: #dbd9d9; width: 300px; border: 7px solid #3FB8AF; padding: 20px; margin: 20px;}</style></head><body><center><div><i><font size='4'>40% of the ancits are smeath.</font></i></div></center><h2>All of the ancits are smeath.</h2></body>,True,NULL,476
1572967420,dee909ab4796a05127167fd77d641149,Question2,138,0,Test-All-Neg-67-coppar-hunene,NULL,<head><style>div {background-color: #dbd9d9; width: 300px; border: 7px solid #3FB8AF; padding: 20px; margin: 20px;}</style></head><body><center><div><i><font size='4'>67% of the coppars are hunene.</font></i></div></center><h2>It is not the case that all of the coppars are hunene.</h2></body>,False,NULL,972
1572967420,dee909ab4796a05127167fd77d641149,Question2,110,0,Test-All-Neg-0-gukbar-soarse,NULL,<head><style>div {background-color: #dbd9d9; width: 300px; border: 7px solid #3FB8AF; padding: 20px; margin: 20px;}</style></head><body><center><div><i><font size='4'>0% of the gukbars are soarse.</font></i></div></center><h2>It is not the case that all of the gukbars are soarse.</h2></body>,False,NULL,419
1572967420,dee909ab4796a05127167fd77d641149,Question2,114,0,Test-All-Neg-3-shrile-athoid,NULL,<head><style>div {background-color: #dbd9d9; width: 300px; border: 7px solid #3FB8AF; padding: 20px; margin: 20px;}</style></head><body><center><div><i><font size='4'>3% of the shriles are athoid.</font></i></div></center><h2>It is not the case that all of the shriles are athoid.</h2></body>,False,NULL,508
1572967420,dee909ab4796a05127167fd77d641149,Question2,49,0,Test-More-than-half-88-jallem-sildal,NULL,<head><style>div {background-color: #dbd9d9; width: 300px; border: 7px solid #3FB8AF; padding: 20px; margin: 20px;}</style></head><body><center><div><i><font size='4'>88% of the jallems are sildal.</font></i></div></center><h2>More than half of the jallems are sildal.</h2></body>,True,NULL,731
1572967420,dee909ab4796a05127167fd77d641149,Question2,11,0,Test-More-than-half-18-chulk-vulhor,NULL,<head><style>div {background-color: #dbd9d9; width: 300px; border: 7px solid #3FB8AF; padding: 20px; margin: 20px;}</style></head><body><center><div><i><font size='4'>18% of the chulks are vulhor.</font></i></div></center><h2>More than half of the chulks are vulhor.</h2></body>,True,NULL,452
1572967420,dee909ab4796a05127167fd77d641149,Question2,71,0,Test-Some-32-ancit-smeath,NULL,<head><style>div {background-color: #dbd9d9; width: 300px; border: 7px solid #3FB8AF; padding: 20px; margin: 20px;}</style></head><body><center><div><i><font size='4'>32% of the ancits are smeath.</font></i></div></center><h2>Some of the ancits are smeath.</h2></body>,True,NULL,620
1572967420,dee909ab4796a05127167fd77d641149,Question2,132,0,Test-All-Neg-55-tecker-biller,NULL,<head><style>div {background-color: #dbd9d9; width: 300px; border: 7px solid #3FB8AF; padding: 20px; margin: 20px;}</style></head><body><center><div><i><font size='4'>55% of the teckers are biller.</font></i></div></center><h2>It is not the case that all of the teckers are biller.</h2></body>,False,NULL,964
1572967420,dee909ab4796a05127167fd77d641149,Question2,75,0,Test-Some-44-fleeve-scalfs,NULL,<head><style>div {background-color: #dbd9d9; width: 300px; border: 7px solid #3FB8AF; padding: 20px; margin: 20px;}</style></head><body><center><div><i><font size='4'>44% of the fleeves are scalfs.</font></i></div></center><h2>Some of the fleeves are scalfs.</h2></body>,True,NULL,1099
1572967420,dee909ab4796a05127167fd77d641149,Question2,128,0,Test-All-Neg-51-pluset-stubad,NULL,<head><style>div {background-color: #dbd9d9; width: 300px; border: 7px solid #3FB8AF; padding: 20px; margin: 20px;}</style></head><body><center><div><i><font size='4'>51% of the plusets are stubad.</font></i></div></center><h2>It is not the case that all of the plusets are stubad.</h2></body>,False,NULL,945
1572967420,dee909ab4796a05127167fd77d641149,Question2,50,0,Test-More-than-half-97-dorder-coggon,NULL,<head><style>div {background-color: #dbd9d9; width: 300px; border: 7px solid #3FB8AF; padding: 20px; margin: 20px;}</style></head><body><center><div><i><font size='4'>97% of the dorders are coggon.</font></i></div></center><h2>More than half of the dorders are coggon.</h2></body>,True,NULL,1949
1572967420,dee909ab4796a05127167fd77d641149,Question2,95,0,Test-Some-75-boddle-molill,NULL,<head><style>div {background-color: #dbd9d9; width: 300px; border: 7px solid #3FB8AF; padding: 20px; margin: 20px;}</style></head><body><center><div><i><font size='4'>75% of the boddles are molill.</font></i></div></center><h2>Some of the boddles are molill.</h2></body>,True,NULL,484
1572967420,dee909ab4796a05127167fd77d641149,Question2,45,0,Test-More-than-half-99-pobbit-spippy,NULL,<head><style>div {background-color: #dbd9d9; width: 300px; border: 7px solid #3FB8AF; padding: 20px; margin: 20px;}</style></head><body><center><div><i><font size='4'>99% of the pobbits are spippy.</font></i></div></center><h2>More than half of the pobbits are spippy.</h2></body>,True,NULL,563
1572967420,dee909ab4796a05127167fd77d641149,Question2,68,0,Test-All-25-cosut-spover,NULL,<head><style>div {background-color: #dbd9d9; width: 300px; border: 7px solid #3FB8AF; padding: 20px; margin: 20px;}</style></head><body><center><div><i><font size='4'>25% of the cosuts are spover.</font></i></div></center><h2>All of the cosuts are spover.</h2></body>,True,NULL,564
1572967420,dee909ab4796a05127167fd77d641149,Question2,91,0,Test-Some-90-sporer-firtly,NULL,<head><style>div {background-color: #dbd9d9; width: 300px; border: 7px solid #3FB8AF; padding: 20px; margin: 20px;}</style></head><body><center><div><i><font size='4'>90% of the sporers are firtly.</font></i></div></center><h2>Some of the sporers are firtly.</h2></body>,True,NULL,555
1572967420,dee909ab4796a05127167fd77d641149,Question2,32,0,Test-More-than-half-59-pluset-stubad,NULL,<head><style>div {background-color: #dbd9d9; width: 300px; border: 7px solid #3FB8AF; padding: 20px; margin: 20px;}</style></head><body><center><div><i><font size='4'>59% of the plusets are stubad.</font></i></div></center><h2>More than half of the plusets are stubad.</h2></body>,True,NULL,593
1572967420,dee909ab4796a05127167fd77d641149,Question2,146,0,Test-All-Neg-80-dorder-coggon,NULL,<head><style>div {background-color: #dbd9d9; width: 300px; border: 7px solid #3FB8AF; padding: 20px; margin: 20px;}</style></head><body><center><div><i><font size='4'>80% of the dorders are coggon.</font></i></div></center><h2>It is not the case that all of the dorders are coggon.</h2></body>,False,NULL,753
1572967420,dee909ab4796a05127167fd77d641149,Question2,134,0,Test-All-Neg-74-raster-movell,NULL,<head><style>div {background-color: #dbd9d9; width: 300px; border: 7px solid #3FB8AF; padding: 20px; margin: 20px;}</style></head><body><center><div><i><font size='4'>74% of the rasters are movell.</font></i></div></center><h2>It is not the case that all of the rasters are movell.</h2></body>,False,NULL,492
1572967420,dee909ab4796a05127167fd77d641149,Question2,79,0,Test-Some-52-strant-potind,NULL,<head><style>div {background-color: #dbd9d9; width: 300px; border: 7px solid #3FB8AF; padding: 20px; margin: 20px;}</style></head><body><center><div><i><font size='4'>52% of the strants are potind.</font></i></div></center><h2>Some of the strants are potind.</h2></body>,True,NULL,803
1572967420,dee909ab4796a05127167fd77d641149,Question2,113,0,Test-Some-Neg-12-shrile-athoid,NULL,<head><style>div {background-color: #dbd9d9; width: 300px; border: 7px solid #3FB8AF; padding: 20px; margin: 20px;}</style></head><body><center><div><i><font size='4'>12% of the shriles are athoid.</font></i></div></center><h2>It is not the case that some of the shriles are athoid.</h2></body>,False,NULL,620
1572967420,dee909ab4796a05127167fd77d641149,Question2,145,0,Test-Some-Neg-77-dorder-coggon,NULL,<head><style>div {background-color: #dbd9d9; width: 300px; border: 7px solid #3FB8AF; padding: 20px; margin: 20px;}</style></head><body><center><div><i><font size='4'>77% of the dorders are coggon.</font></i></div></center><h2>It is not the case that some of the dorders are coggon.</h2></body>,False,NULL,492
1572967420,dee909ab4796a05127167fd77d641149,Question2,89,0,Test-Some-62-pliper-sesare,NULL,<head><style>div {background-color: #dbd9d9; width: 300px; border: 7px solid #3FB8AF; padding: 20px; margin: 20px;}</style></head><body><center><div><i><font size='4'>62% of the plipers are sesare.</font></i></div></center><h2>Some of the plipers are sesare.</h2></body>,True,NULL,899
1572967420,dee909ab4796a05127167fd77d641149,Question2,99,0,Test-Some-100-puctor-recure,NULL,<head><style>div {background-color: #dbd9d9; width: 300px; border: 7px solid #3FB8AF; padding: 20px; margin: 20px;}</style></head><body><center><div><i><font size='4'>100% of the puctors are recure.</font></i></div></center><h2>Some of the puctors are recure.</h2></body>,True,NULL,868
1572967420,dee909ab4796a05127167fd77d641149,Question2,116,0,Test-All-Neg-29-coamin-mucond,NULL,<head><style>div {background-color: #dbd9d9; width: 300px; border: 7px solid #3FB8AF; padding: 20px; margin: 20px;}</style></head><body><center><div><i><font size='4'>29% of the coamins are mucond.</font></i></div></center><h2>It is not the case that all of the coamins are mucond.</h2></body>,False,NULL,700
1572967420,dee909ab4796a05127167fd77d641149,Question2,131,0,Test-Some-Neg-64-tecker-biller,NULL,<head><style>div {background-color: #dbd9d9; width: 300px; border: 7px solid #3FB8AF; padding: 20px; margin: 20px;}</style></head><body><center><div><i><font size='4'>64% of the teckers are biller.</font></i></div></center><h2>It is not the case that some of the teckers are biller.</h2></body>,False,NULL,444
1572967420,dee909ab4796a05127167fd77d641149,Question2,39,0,Test-More-than-half-66-menner-nandow,NULL,<head><style>div {background-color: #dbd9d9; width: 300px; border: 7px solid #3FB8AF; padding: 20px; margin: 20px;}</style></head><body><center><div><i><font size='4'>66% of the menners are nandow.</font></i></div></center><h2>More than half of the menners are nandow.</h2></body>,True,NULL,836
1572967420,dee909ab4796a05127167fd77d641149,Question2,48,0,Test-More-than-half-86-devole-sholly,NULL,<head><style>div {background-color: #dbd9d9; width: 300px; border: 7px solid #3FB8AF; padding: 20px; margin: 20px;}</style></head><body><center><div><i><font size='4'>86% of the devoles are sholly.</font></i></div></center><h2>More than half of the devoles are sholly.</h2></body>,True,NULL,684
1572967420,dee909ab4796a05127167fd77d641149,Question2,122,0,Test-All-Neg-28-zetten-unfobs,NULL,<head><style>div {background-color: #dbd9d9; width: 300px; border: 7px solid #3FB8AF; padding: 20px; margin: 20px;}</style></head><body><center><div><i><font size='4'>28% of the zettens are unfobs.</font></i></div></center><h2>It is not the case that all of the zettens are unfobs.</h2></body>,False,NULL,745
1572967420,dee909ab4796a05127167fd77d641149,Question2,33,0,Test-More-than-half-53-umpond-marire,NULL,<head><style>div {background-color: #dbd9d9; width: 300px; border: 7px solid #3FB8AF; padding: 20px; margin: 20px;}</style></head><body><center><div><i><font size='4'>53% of the umponds are marire.</font></i></div></center><h2>More than half of the umponds are marire.</h2></body>,True,NULL,835
1572967420,dee909ab4796a05127167fd77d641149,Question2,70,0,Test-All-39-shamer-bloif,NULL,<head><style>div {background-color: #dbd9d9; width: 300px; border: 7px solid #3FB8AF; padding: 20px; margin: 20px;}</style></head><body><center><div><i><font size='4'>39% of the shamers are bloif.</font></i></div></center><h2>All of the shamers are bloif.</h2></body>,True,NULL,1123
1572967420,dee909ab4796a05127167fd77d641149,Question2,43,0,Test-More-than-half-92-sporer-firtly,NULL,<head><style>div {background-color: #dbd9d9; width: 300px; border: 7px solid #3FB8AF; padding: 20px; margin: 20px;}</style></head><body><center><div><i><font size='4'>92% of the sporers are firtly.</font></i></div></center><h2>More than half of the sporers are firtly.</h2></body>,True,NULL,732
1572967420,dee909ab4796a05127167fd77d641149,Question2,17,0,Test-More-than-half-11-spunge-wenple,NULL,<head><style>div {background-color: #dbd9d9; width: 300px; border: 7px solid #3FB8AF; padding: 20px; margin: 20px;}</style></head><body><center><div><i><font size='4'>11% of the spunges are wenple.</font></i></div></center><h2>More than half of the spunges are wenple.</h2></body>,True,NULL,508
1572967420,dee909ab4796a05127167fd77d641149,Question2,38,0,Test-More-than-half-71-raster-movell,NULL,<head><style>div {background-color: #dbd9d9; width: 300px; border: 7px solid #3FB8AF; padding: 20px; margin: 20px;}</style></head><body><center><div><i><font size='4'>71% of the rasters are movell.</font></i></div></center><h2>More than half of the rasters are movell.</h2></body>,True,NULL,520
1572967420,dee909ab4796a05127167fd77d641149,Question2,129,0,Test-Some-Neg-58-russer-huttle,NULL,<head><style>div {background-color: #dbd9d9; width: 300px; border: 7px solid #3FB8AF; padding: 20px; margin: 20px;}</style></head><body><center><div><i><font size='4'>58% of the russers are huttle.</font></i></div></center><h2>It is not the case that some of the russers are huttle.</h2></body>,False,NULL,933
1572967420,dee909ab4796a05127167fd77d641149,Question2,60,0,Test-All-21-chulk-vulhor,NULL,<head><style>div {background-color: #dbd9d9; width: 300px; border: 7px solid #3FB8AF; padding: 20px; margin: 20px;}</style></head><body><center><div><i><font size='4'>21% of the chulks are vulhor.</font></i></div></center><h2>All of the chulks are vulhor.</h2></body>,True,NULL,891
1572967420,dee909ab4796a05127167fd77d641149,Question2,51,0,Test-More-than-half-93-puctor-recure,NULL,<head><style>div {background-color: #dbd9d9; width: 300px; border: 7px solid #3FB8AF; padding: 20px; margin: 20px;}</style></head><body><center><div><i><font size='4'>93% of the puctors are recure.</font></i></div></center><h2>More than half of the puctors are recure.</h2></body>,True,NULL,475
1572967420,dee909ab4796a05127167fd77d641149,Question2,63,0,Test-Some-13-clidge-hensly,NULL,<head><style>div {background-color: #dbd9d9; width: 300px; border: 7px solid #3FB8AF; padding: 20px; margin: 20px;}</style></head><body><center><div><i><font size='4'>13% of the clidges are hensly.</font></i></div></center><h2>Some of the clidges are hensly.</h2></body>,True,NULL,724
1572967420,dee909ab4796a05127167fd77d641149,Question2,127,0,Test-Some-Neg-51-pluset-stubad,NULL,<head><style>div {background-color: #dbd9d9; width: 300px; border: 7px solid #3FB8AF; padding: 20px; margin: 20px;}</style></head><body><center><div><i><font size='4'>51% of the plusets are stubad.</font></i></div></center><h2>It is not the case that some of the plusets are stubad.</h2></body>,False,NULL,716
1572967420,dee909ab4796a05127167fd77d641149,Question2,24,0,Test-More-than-half-30-pengyl-sedest,NULL,<head><style>div {background-color: #dbd9d9; width: 300px; border: 7px solid #3FB8AF; padding: 20px; margin: 20px;}</style></head><body><center><div><i><font size='4'>30% of the pengyls are sedest.</font></i></div></center><h2>More than half of the pengyls are sedest.</h2></body>,True,NULL,788
1572967420,dee909ab4796a05127167fd77d641149,Question2,9,0,Test-More-than-half-12-puggle-entand,NULL,<head><style>div {background-color: #dbd9d9; width: 300px; border: 7px solid #3FB8AF; padding: 20px; margin: 20px;}</style></head><body><center><div><i><font size='4'>12% of the puggles are entand.</font></i></div></center><h2>More than half of the puggles are entand.</h2></body>,True,NULL,484
1572967420,dee909ab4796a05127167fd77d641149,Question2,26,0,Test-More-than-half-41-zetten-unfobs,NULL,<head><style>div {background-color: #dbd9d9; width: 300px; border: 7px solid #3FB8AF; padding: 20px; margin: 20px;}</style></head><body><center><div><i><font size='4'>41% of the zettens are unfobs.</font></i></div></center><h2>More than half of the zettens are unfobs.</h2></body>,True,NULL,469
1572967420,dee909ab4796a05127167fd77d641149,Question2,92,0,Test-All-97-sporer-firtly,NULL,<head><style>div {background-color: #dbd9d9; width: 300px; border: 7px solid #3FB8AF; padding: 20px; margin: 20px;}</style></head><body><center><div><i><font size='4'>97% of the sporers are firtly.</font></i></div></center><h2>All of the sporers are firtly.</h2></body>,True,NULL,676
1572967420,dee909ab4796a05127167fd77d641149,Question2,84,0,Test-All-62-cather-funder,NULL,<head><style>div {background-color: #dbd9d9; width: 300px; border: 7px solid #3FB8AF; padding: 20px; margin: 20px;}</style></head><body><center><div><i><font size='4'>62% of the cathers are funder.</font></i></div></center><h2>All of the cathers are funder.</h2></body>,True,NULL,460
1572967420,dee909ab4796a05127167fd77d641149,Question2,12,0,Test-More-than-half-10-werner-hurmer,NULL,<head><style>div {background-color: #dbd9d9; width: 300px; border: 7px solid #3FB8AF; padding: 20px; margin: 20px;}</style></head><body><center><div><i><font size='4'>10% of the werners are hurmer.</font></i></div></center><h2>More than half of the werners are hurmer.</h2></body>,True,NULL,562
1572967420,dee909ab4796a05127167fd77d641149,Question2,14,0,Test-More-than-half-7-gukbar-soarse,NULL,<head><style>div {background-color: #dbd9d9; width: 300px; border: 7px solid #3FB8AF; padding: 20px; margin: 20px;}</style></head><body><center><div><i><font size='4'>7% of the gukbars are soarse.</font></i></div></center><h2>More than half of the gukbars are soarse.</h2></body>,True,NULL,445
1572967420,dee909ab4796a05127167fd77d641149,Question2,58,0,Test-All-16-puggle-entand,NULL,<head><style>div {background-color: #dbd9d9; width: 300px; border: 7px solid #3FB8AF; padding: 20px; margin: 20px;}</style></head><body><center><div><i><font size='4'>16% of the puggles are entand.</font></i></div></center><h2>All of the puggles are entand.</h2></body>,True,NULL,523
1572967420,dee909ab4796a05127167fd77d641149,Question2,136,0,Test-All-Neg-59-bamet-unzast,NULL,<head><style>div {background-color: #dbd9d9; width: 300px; border: 7px solid #3FB8AF; padding: 20px; margin: 20px;}</style></head><body><center><div><i><font size='4'>59% of the bamets are unzast.</font></i></div></center><h2>It is not the case that all of the bamets are unzast.</h2></body>,False,NULL,740
1572967420,dee909ab4796a05127167fd77d641149,Question2,78,0,Test-All-49-shurrie-preser,NULL,<head><style>div {background-color: #dbd9d9; width: 300px; border: 7px solid #3FB8AF; padding: 20px; margin: 20px;}</style></head><body><center><div><i><font size='4'>49% of the shurries are preser.</font></i></div></center><h2>All of the shurries are preser.</h2></body>,True,NULL,627
1572967420,dee909ab4796a05127167fd77d641149,Question2,25,0,Test-More-than-half-42-hadder-ollidy,NULL,<head><style>div {background-color: #dbd9d9; width: 300px; border: 7px solid #3FB8AF; padding: 20px; margin: 20px;}</style></head><body><center><div><i><font size='4'>42% of the hadders are ollidy.</font></i></div></center><h2>More than half of the hadders are ollidy.</h2></body>,True,NULL,516
1572967420,dee909ab4796a05127167fd77d641149,Question2,18,0,Test-More-than-half-9-shrile-athoid,NULL,<head><style>div {background-color: #dbd9d9; width: 300px; border: 7px solid #3FB8AF; padding: 20px; margin: 20px;}</style></head><body><center><div><i><font size='4'>9% of the shriles are athoid.</font></i></div></center><h2>More than half of the shriles are athoid.</h2></body>,True,NULL,507
1572967420,dee909ab4796a05127167fd77d641149,Question2,102,0,Test-All-94-awplor-fasees,NULL,<head><style>div {background-color: #dbd9d9; width: 300px; border: 7px solid #3FB8AF; padding: 20px; margin: 20px;}</style></head><body><center><div><i><font size='4'>94% of the awplors are fasees.</font></i></div></center><h2>All of the awplors are fasees.</h2></body>,True,NULL,628
1572967420,dee909ab4796a05127167fd77d641149,Question2,150,0,Test-All-Neg-88-ingell-nalill,NULL,<head><style>div {background-color: #dbd9d9; width: 300px; border: 7px solid #3FB8AF; padding: 20px; margin: 20px;}</style></head><body><center><div><i><font size='4'>88% of the ingells are nalill.</font></i></div></center><h2>It is not the case that all of the ingells are nalill.</h2></body>,False,NULL,835
1572967420,dee909ab4796a05127167fd77d641149,Question2,87,0,Test-Some-61-menner-nandow,NULL,<head><style>div {background-color: #dbd9d9; width: 300px; border: 7px solid #3FB8AF; padding: 20px; margin: 20px;}</style></head><body><center><div><i><font size='4'>61% of the menners are nandow.</font></i></div></center><h2>Some of the menners are nandow.</h2></body>,True,NULL,693
1572967420,dee909ab4796a05127167fd77d641149,Question2,37,0,Test-More-than-half-55-birler-enciad,NULL,<head><style>div {background-color: #dbd9d9; width: 300px; border: 7px solid #3FB8AF; padding: 20px; margin: 20px;}</style></head><body><center><div><i><font size='4'>55% of the birlers are enciad.</font></i></div></center><h2>More than half of the birlers are enciad.</h2></body>,True,NULL,436
1572967420,dee909ab4796a05127167fd77d641149,Question2,76,0,Test-All-30-fleeve-scalfs,NULL,<head><style>div {background-color: #dbd9d9; width: 300px; border: 7px solid #3FB8AF; padding: 20px; margin: 20px;}</style></head><body><center><div><i><font size='4'>30% of the fleeves are scalfs.</font></i></div></center><h2>All of the fleeves are scalfs.</h2></body>,True,NULL,668
1572967420,dee909ab4796a05127167fd77d641149,Question2,28,0,Test-More-than-half-44-tiklet-hullaw,NULL,<head><style>div {background-color: #dbd9d9; width: 300px; border: 7px solid #3FB8AF; padding: 20px; margin: 20px;}</style></head><body><center><div><i><font size='4'>44% of the tiklets are hullaw.</font></i></div></center><h2>More than half of the tiklets are hullaw.</h2></body>,True,NULL,547
1572967420,dee909ab4796a05127167fd77d641149,Question2,66,0,Test-All-2-spunge-wenple,NULL,<head><style>div {background-color: #dbd9d9; width: 300px; border: 7px solid #3FB8AF; padding: 20px; margin: 20px;}</style></head><body><center><div><i><font size='4'>2% of the spunges are wenple.</font></i></div></center><h2>All of the spunges are wenple.</h2></body>,True,NULL,588
1572967420,dee909ab4796a05127167fd77d641149,Question2,140,0,Test-All-Neg-83-pirter-secent,NULL,<head><style>div {background-color: #dbd9d9; width: 300px; border: 7px solid #3FB8AF; padding: 20px; margin: 20px;}</style></head><body><center><div><i><font size='4'>83% of the pirters are secent.</font></i></div></center><h2>It is not the case that all of the pirters are secent.</h2></body>,False,NULL,756
1572967420,dee909ab4796a05127167fd77d641149,Question2,86,0,Test-All-60-birler-enciad,NULL,<head><style>div {background-color: #dbd9d9; width: 300px; border: 7px solid #3FB8AF; padding: 20px; margin: 20px;}</style></head><body><center><div><i><font size='4'>60% of the birlers are enciad.</font></i></div></center><h2>All of the birlers are enciad.</h2></body>,True,NULL,644
1572967420,dee909ab4796a05127167fd77d641149,Question2,65,0,Test-Some-3-spunge-wenple,NULL,<head><style>div {background-color: #dbd9d9; width: 300px; border: 7px solid #3FB8AF; padding: 20px; margin: 20px;}</style></head><body><center><div><i><font size='4'>3% of the spunges are wenple.</font></i></div></center><h2>Some of the spunges are wenple.</h2></body>,True,NULL,387
1572967420,dee909ab4796a05127167fd77d641149,Question2,83,0,Test-Some-71-cather-funder,NULL,<head><style>div {background-color: #dbd9d9; width: 300px; border: 7px solid #3FB8AF; padding: 20px; margin: 20px;}</style></head><body><center><div><i><font size='4'>71% of the cathers are funder.</font></i></div></center><h2>Some of the cathers are funder.</h2></body>,True,NULL,604
1572967420,dee909ab4796a05127167fd77d641149,Question2,103,0,Test-Some-Neg-21-beckel-racual,NULL,<head><style>div {background-color: #dbd9d9; width: 300px; border: 7px solid #3FB8AF; padding: 20px; margin: 20px;}</style></head><body><center><div><i><font size='4'>21% of the beckels are racual.</font></i></div></center><h2>It is not the case that some of the beckels are racual.</h2></body>,False,NULL,723
1572967420,dee909ab4796a05127167fd77d641149,Question2,53,0,Test-More-than-half-84-awplor-fasees,NULL,<head><style>div {background-color: #dbd9d9; width: 300px; border: 7px solid #3FB8AF; padding: 20px; margin: 20px;}</style></head><body><center><div><i><font size='4'>84% of the awplors are fasees.</font></i></div></center><h2>More than half of the awplors are fasees.</h2></body>,True,NULL,508
1572967420,dee909ab4796a05127167fd77d641149,Question2,13,0,Test-More-than-half-20-mecket-plumry,NULL,<head><style>div {background-color: #dbd9d9; width: 300px; border: 7px solid #3FB8AF; padding: 20px; margin: 20px;}</style></head><body><center><div><i><font size='4'>20% of the meckets are plumry.</font></i></div></center><h2>More than half of the meckets are plumry.</h2></body>,True,NULL,1291
1572967420,dee909ab4796a05127167fd77d641149,Question2,104,0,Test-All-Neg-11-beckel-racual,NULL,<head><style>div {background-color: #dbd9d9; width: 300px; border: 7px solid #3FB8AF; padding: 20px; margin: 20px;}</style></head><body><center><div><i><font size='4'>11% of the beckels are racual.</font></i></div></center><h2>It is not the case that all of the beckels are racual.</h2></body>,False,NULL,780
1572967420,dee909ab4796a05127167fd77d641149,Question2,141,0,Test-Some-Neg-82-padnet-fanely,NULL,<head><style>div {background-color: #dbd9d9; width: 300px; border: 7px solid #3FB8AF; padding: 20px; margin: 20px;}</style></head><body><center><div><i><font size='4'>82% of the padnets are fanely.</font></i></div></center><h2>It is not the case that some of the padnets are fanely.</h2></body>,False,NULL,843
1572967420,dee909ab4796a05127167fd77d641149,Question2,143,0,Test-Some-Neg-79-devole-sholly,NULL,<head><style>div {background-color: #dbd9d9; width: 300px; border: 7px solid #3FB8AF; padding: 20px; margin: 20px;}</style></head><body><center><div><i><font size='4'>79% of the devoles are sholly.</font></i></div></center><h2>It is not the case that some of the devoles are sholly.</h2></body>,False,NULL,804
1572967420,dee909ab4796a05127167fd77d641149,Question2,108,0,Test-All-Neg-24-werner-hurmer,NULL,<head><style>div {background-color: #dbd9d9; width: 300px; border: 7px solid #3FB8AF; padding: 20px; margin: 20px;}</style></head><body><center><div><i><font size='4'>24% of the werners are hurmer.</font></i></div></center><h2>It is not the case that all of the werners are hurmer.</h2></body>,False,NULL,491
1572967420,dee909ab4796a05127167fd77d641149,Question2,101,0,Test-Some-80-awplor-fasees,NULL,<head><style>div {background-color: #dbd9d9; width: 300px; border: 7px solid #3FB8AF; padding: 20px; margin: 20px;}</style></head><body><center><div><i><font size='4'>80% of the awplors are fasees.</font></i></div></center><h2>Some of the awplors are fasees.</h2></body>,True,NULL,805
1572967420,dee909ab4796a05127167fd77d641149,Question2,130,0,Test-All-Neg-61-russer-huttle,NULL,<head><style>div {background-color: #dbd9d9; width: 300px; border: 7px solid #3FB8AF; padding: 20px; margin: 20px;}</style></head><body><center><div><i><font size='4'>61% of the russers are huttle.</font></i></div></center><h2>It is not the case that all of the russers are huttle.</h2></body>,False,NULL,676
1572967420,dee909ab4796a05127167fd77d641149,Question2,111,0,Test-Some-Neg-1-schook-jabant,NULL,<head><style>div {background-color: #dbd9d9; width: 300px; border: 7px solid #3FB8AF; padding: 20px; margin: 20px;}</style></head><body><center><div><i><font size='4'>1% of the schooks are jabant.</font></i></div></center><h2>It is not the case that some of the schooks are jabant.</h2></body>,False,NULL,473
1572967420,dee909ab4796a05127167fd77d641149,Question2,67,0,Test-Some-43-cosut-spover,NULL,<head><style>div {background-color: #dbd9d9; width: 300px; border: 7px solid #3FB8AF; padding: 20px; margin: 20px;}</style></head><body><center><div><i><font size='4'>43% of the cosuts are spover.</font></i></div></center><h2>Some of the cosuts are spover.</h2></body>,True,NULL,757
1572967420,dee909ab4796a05127167fd77d641149,Question2,125,0,Test-Some-Neg-28-monter-melelt,NULL,<head><style>div {background-color: #dbd9d9; width: 300px; border: 7px solid #3FB8AF; padding: 20px; margin: 20px;}</style></head><body><center><div><i><font size='4'>28% of the monters are melelt.</font></i></div></center><h2>It is not the case that some of the monters are melelt.</h2></body>,False,NULL,629
1572967420,dee909ab4796a05127167fd77d641149,Question2,35,0,Test-More-than-half-67-cather-funder,NULL,<head><style>div {background-color: #dbd9d9; width: 300px; border: 7px solid #3FB8AF; padding: 20px; margin: 20px;}</style></head><body><center><div><i><font size='4'>67% of the cathers are funder.</font></i></div></center><h2>More than half of the cathers are funder.</h2></body>,True,NULL,739
1572967420,dee909ab4796a05127167fd77d641149,Question2,7,0,Test-More-than-half-3-kustle-reshix,NULL,<head><style>div {background-color: #dbd9d9; width: 300px; border: 7px solid #3FB8AF; padding: 20px; margin: 20px;}</style></head><body><center><div><i><font size='4'>3% of the kustles are reshix.</font></i></div></center><h2>More than half of the kustles are reshix.</h2></body>,True,NULL,492
1572967420,dee909ab4796a05127167fd77d641149,Question2,144,0,Test-All-Neg-84-devole-sholly,NULL,<head><style>div {background-color: #dbd9d9; width: 300px; border: 7px solid #3FB8AF; padding: 20px; margin: 20px;}</style></head><body><center><div><i><font size='4'>84% of the devoles are sholly.</font></i></div></center><h2>It is not the case that all of the devoles are sholly.</h2></body>,False,NULL,676
1572967420,dee909ab4796a05127167fd77d641149,Question2,120,0,Test-All-Neg-33-pengyl-sedest,NULL,<head><style>div {background-color: #dbd9d9; width: 300px; border: 7px solid #3FB8AF; padding: 20px; margin: 20px;}</style></head><body><center><div><i><font size='4'>33% of the pengyls are sedest.</font></i></div></center><h2>It is not the case that all of the pengyls are sedest.</h2></body>,False,NULL,571
1572967420,dee909ab4796a05127167fd77d641149,Question2,10,0,Test-More-than-half-6-chadop-shaple,NULL,<head><style>div {background-color: #dbd9d9; width: 300px; border: 7px solid #3FB8AF; padding: 20px; margin: 20px;}</style></head><body><center><div><i><font size='4'>6% of the chadops are shaple.</font></i></div></center><h2>More than half of the chadops are shaple.</h2></body>,True,NULL,707
1572967420,dee909ab4796a05127167fd77d641149,Question2,74,0,Test-All-46-hadder-ollidy,NULL,<head><style>div {background-color: #dbd9d9; width: 300px; border: 7px solid #3FB8AF; padding: 20px; margin: 20px;}</style></head><body><center><div><i><font size='4'>46% of the hadders are ollidy.</font></i></div></center><h2>All of the hadders are ollidy.</h2></body>,True,NULL,604
1572967420,dee909ab4796a05127167fd77d641149,Question2,107,0,Test-Some-Neg-24-werner-hurmer,NULL,<head><style>div {background-color: #dbd9d9; width: 300px; border: 7px solid #3FB8AF; padding: 20px; margin: 20px;}</style></head><body><center><div><i><font size='4'>24% of the werners are hurmer.</font></i></div></center><h2>It is not the case that some of the werners are hurmer.</h2></body>,False,NULL,763
1572967420,dee909ab4796a05127167fd77d641149,Question2,117,0,Test-Some-Neg-40-middor-drooty,NULL,<head><style>div {background-color: #dbd9d9; width: 300px; border: 7px solid #3FB8AF; padding: 20px; margin: 20px;}</style></head><body><center><div><i><font size='4'>40% of the middors are drooty.</font></i></div></center><h2>It is not the case that some of the middors are drooty.</h2></body>,False,NULL,431
1572967420,dee909ab4796a05127167fd77d641149,Question2,139,0,Test-Some-Neg-93-pirter-secent,NULL,<head><style>div {background-color: #dbd9d9; width: 300px; border: 7px solid #3FB8AF; padding: 20px; margin: 20px;}</style></head><body><center><div><i><font size='4'>93% of the pirters are secent.</font></i></div></center><h2>It is not the case that some of the pirters are secent.</h2></body>,False,NULL,509
1572967420,dee909ab4796a05127167fd77d641149,Question2,52,0,Test-More-than-half-85-chevel-podden,NULL,<head><style>div {background-color: #dbd9d9; width: 300px; border: 7px solid #3FB8AF; padding: 20px; margin: 20px;}</style></head><body><center><div><i><font size='4'>85% of the chevels are podden.</font></i></div></center><h2>More than half of the chevels are podden.</h2></body>,True,NULL,796
1572967420,dee909ab4796a05127167fd77d641149,Question2,123,0,Test-Some-Neg-35-tiklet-hullaw,NULL,<head><style>div {background-color: #dbd9d9; width: 300px; border: 7px solid #3FB8AF; padding: 20px; margin: 20px;}</style></head><body><center><div><i><font size='4'>35% of the tiklets are hullaw.</font></i></div></center><h2>It is not the case that some of the tiklets are hullaw.</h2></body>,False,NULL,652
1572967420,dee909ab4796a05127167fd77d641149,Question2,88,0,Test-All-69-menner-nandow,NULL,<head><style>div {background-color: #dbd9d9; width: 300px; border: 7px solid #3FB8AF; padding: 20px; margin: 20px;}</style></head><body><center><div><i><font size='4'>69% of the menners are nandow.</font></i></div></center><h2>All of the menners are nandow.</h2></body>,True,NULL,716
1572967420,dee909ab4796a05127167fd77d641149,Question2,142,0,Test-All-Neg-89-padnet-fanely,NULL,<head><style>div {background-color: #dbd9d9; width: 300px; border: 7px solid #3FB8AF; padding: 20px; margin: 20px;}</style></head><body><center><div><i><font size='4'>89% of the padnets are fanely.</font></i></div></center><h2>It is not the case that all of the padnets are fanely.</h2></body>,False,NULL,685
1572967420,dee909ab4796a05127167fd77d641149,Question2,16,0,Test-More-than-half-4-schook-jabant,NULL,<head><style>div {background-color: #dbd9d9; width: 300px; border: 7px solid #3FB8AF; padding: 20px; margin: 20px;}</style></head><body><center><div><i><font size='4'>4% of the schooks are jabant.</font></i></div></center><h2>More than half of the schooks are jabant.</h2></body>,True,NULL,816
1572967420,dee909ab4796a05127167fd77d641149,Question2,133,0,Test-Some-Neg-70-raster-movell,NULL,<head><style>div {background-color: #dbd9d9; width: 300px; border: 7px solid #3FB8AF; padding: 20px; margin: 20px;}</style></head><body><center><div><i><font size='4'>70% of the rasters are movell.</font></i></div></center><h2>It is not the case that some of the rasters are movell.</h2></body>,False,NULL,587
1572967420,dee909ab4796a05127167fd77d641149,Question2,62,0,Test-All-19-mecket-plumry,NULL,<head><style>div {background-color: #dbd9d9; width: 300px; border: 7px solid #3FB8AF; padding: 20px; margin: 20px;}</style></head><body><center><div><i><font size='4'>19% of the meckets are plumry.</font></i></div></center><h2>All of the meckets are plumry.</h2></body>,True,NULL,762
1572967420,dee909ab4796a05127167fd77d641149,Question2,46,0,Test-More-than-half-81-padnet-fanely,NULL,<head><style>div {background-color: #dbd9d9; width: 300px; border: 7px solid #3FB8AF; padding: 20px; margin: 20px;}</style></head><body><center><div><i><font size='4'>81% of the padnets are fanely.</font></i></div></center><h2>More than half of the padnets are fanely.</h2></body>,True,NULL,579
1572967420,dee909ab4796a05127167fd77d641149,Question2,56,0,Test-All-17-kustle-reshix,NULL,<head><style>div {background-color: #dbd9d9; width: 300px; border: 7px solid #3FB8AF; padding: 20px; margin: 20px;}</style></head><body><center><div><i><font size='4'>17% of the kustles are reshix.</font></i></div></center><h2>All of the kustles are reshix.</h2></body>,True,NULL,476
1572967420,dee909ab4796a05127167fd77d641149,Question2,42,0,Test-More-than-half-73-coppar-hunene,NULL,<head><style>div {background-color: #dbd9d9; width: 300px; border: 7px solid #3FB8AF; padding: 20px; margin: 20px;}</style></head><body><center><div><i><font size='4'>73% of the coppars are hunene.</font></i></div></center><h2>More than half of the coppars are hunene.</h2></body>,True,NULL,668
1572967420,dee909ab4796a05127167fd77d641149,Question2,148,0,Test-All-Neg-92-chevel-podden,NULL,<head><style>div {background-color: #dbd9d9; width: 300px; border: 7px solid #3FB8AF; padding: 20px; margin: 20px;}</style></head><body><center><div><i><font size='4'>92% of the chevels are podden.</font></i></div></center><h2>It is not the case that all of the chevels are podden.</h2></body>,False,NULL,988
1572967420,dee909ab4796a05127167fd77d641149,Question2,93,0,Test-Some-92-pobbit-spippy,NULL,<head><style>div {background-color: #dbd9d9; width: 300px; border: 7px solid #3FB8AF; padding: 20px; margin: 20px;}</style></head><body><center><div><i><font size='4'>92% of the pobbits are spippy.</font></i></div></center><h2>Some of the pobbits are spippy.</h2></body>,True,NULL,724
1572967420,dee909ab4796a05127167fd77d641149,Question2,109,0,Test-Some-Neg-11-gukbar-soarse,NULL,<head><style>div {background-color: #dbd9d9; width: 300px; border: 7px solid #3FB8AF; padding: 20px; margin: 20px;}</style></head><body><center><div><i><font size='4'>11% of the gukbars are soarse.</font></i></div></center><h2>It is not the case that some of the gukbars are soarse.</h2></body>,False,NULL,730
1572967420,dee909ab4796a05127167fd77d641149,Question2,90,0,Test-All-70-pliper-sesare,NULL,<head><style>div {background-color: #dbd9d9; width: 300px; border: 7px solid #3FB8AF; padding: 20px; margin: 20px;}</style></head><body><center><div><i><font size='4'>70% of the plipers are sesare.</font></i></div></center><h2>All of the plipers are sesare.</h2></body>,True,NULL,595
1572967420,dee909ab4796a05127167fd77d641149,Question2,34,0,Test-More-than-half-61-russer-huttle,NULL,<head><style>div {background-color: #dbd9d9; width: 300px; border: 7px solid #3FB8AF; padding: 20px; margin: 20px;}</style></head><body><center><div><i><font size='4'>61% of the russers are huttle.</font></i></div></center><h2>More than half of the russers are huttle.</h2></body>,True,NULL,721
1572967420,dee909ab4796a05127167fd77d641149,Question2,30,0,Test-More-than-half-38-monter-melelt,NULL,<head><style>div {background-color: #dbd9d9; width: 300px; border: 7px solid #3FB8AF; padding: 20px; margin: 20px;}</style></head><body><center><div><i><font size='4'>38% of the monters are melelt.</font></i></div></center><h2>More than half of the monters are melelt.</h2></body>,True,NULL,559
1572967420,dee909ab4796a05127167fd77d641149,Question2,19,0,Test-More-than-half-26-cosut-spover,NULL,<head><style>div {background-color: #dbd9d9; width: 300px; border: 7px solid #3FB8AF; padding: 20px; margin: 20px;}</style></head><body><center><div><i><font size='4'>26% of the cosuts are spover.</font></i></div></center><h2>More than half of the cosuts are spover.</h2></body>,True,NULL,1121
1572967420,dee909ab4796a05127167fd77d641149,Question2,59,0,Test-Some-4-chulk-vulhor,NULL,<head><style>div {background-color: #dbd9d9; width: 300px; border: 7px solid #3FB8AF; padding: 20px; margin: 20px;}</style></head><body><center><div><i><font size='4'>4% of the chulks are vulhor.</font></i></div></center><h2>Some of the chulks are vulhor.</h2></body>,True,NULL,468
1572967420,dee909ab4796a05127167fd77d641149,Question2,80,0,Test-All-68-strant-potind,NULL,<head><style>div {background-color: #dbd9d9; width: 300px; border: 7px solid #3FB8AF; padding: 20px; margin: 20px;}</style></head><body><center><div><i><font size='4'>68% of the strants are potind.</font></i></div></center><h2>All of the strants are potind.</h2></body>,True,NULL,556
1572967420,dee909ab4796a05127167fd77d641149,Question2,22,0,Test-More-than-half-37-middor-drooty,NULL,<head><style>div {background-color: #dbd9d9; width: 300px; border: 7px solid #3FB8AF; padding: 20px; margin: 20px;}</style></head><body><center><div><i><font size='4'>37% of the middors are drooty.</font></i></div></center><h2>More than half of the middors are drooty.</h2></body>,True,NULL,540
1572967420,dee909ab4796a05127167fd77d641149,Question2,8,0,Test-More-than-half-13-beckel-racual,NULL,<head><style>div {background-color: #dbd9d9; width: 300px; border: 7px solid #3FB8AF; padding: 20px; margin: 20px;}</style></head><body><center><div><i><font size='4'>13% of the beckels are racual.</font></i></div></center><h2>More than half of the beckels are racual.</h2></body>,True,NULL,484
1572967420,dee909ab4796a05127167fd77d641149,Question2,47,0,Test-More-than-half-94-boddle-molill,NULL,<head><style>div {background-color: #dbd9d9; width: 300px; border: 7px solid #3FB8AF; padding: 20px; margin: 20px;}</style></head><body><center><div><i><font size='4'>94% of the boddles are molill.</font></i></div></center><h2>More than half of the boddles are molill.</h2></body>,True,NULL,500
1572967420,dee909ab4796a05127167fd77d641149,Question2,31,0,Test-More-than-half-70-strant-potind,NULL,<head><style>div {background-color: #dbd9d9; width: 300px; border: 7px solid #3FB8AF; padding: 20px; margin: 20px;}</style></head><body><center><div><i><font size='4'>70% of the strants are potind.</font></i></div></center><h2>More than half of the strants are potind.</h2></body>,True,NULL,433
1572967420,dee909ab4796a05127167fd77d641149,Question2,149,0,Test-Some-Neg-87-ingell-nalill,NULL,<head><style>div {background-color: #dbd9d9; width: 300px; border: 7px solid #3FB8AF; padding: 20px; margin: 20px;}</style></head><body><center><div><i><font size='4'>87% of the ingells are nalill.</font></i></div></center><h2>It is not the case that some of the ingells are nalill.</h2></body>,False,NULL,747
1572967420,dee909ab4796a05127167fd77d641149,Question2,112,0,Test-All-Neg-5-schook-jabant,NULL,<head><style>div {background-color: #dbd9d9; width: 300px; border: 7px solid #3FB8AF; padding: 20px; margin: 20px;}</style></head><body><center><div><i><font size='4'>5% of the schooks are jabant.</font></i></div></center><h2>It is not the case that all of the schooks are jabant.</h2></body>,False,NULL,644
1572967420,dee909ab4796a05127167fd77d641149,Question2,21,0,Test-More-than-half-28-shamer-bloif,NULL,<head><style>div {background-color: #dbd9d9; width: 300px; border: 7px solid #3FB8AF; padding: 20px; margin: 20px;}</style></head><body><center><div><i><font size='4'>28% of the shamers are bloif.</font></i></div></center><h2>More than half of the shamers are bloif.</h2></body>,True,NULL,724
1572967420,dee909ab4796a05127167fd77d641149,Question2,54,0,Test-More-than-half-96-ingell-nalill,NULL,<head><style>div {background-color: #dbd9d9; width: 300px; border: 7px solid #3FB8AF; padding: 20px; margin: 20px;}</style></head><body><center><div><i><font size='4'>96% of the ingells are nalill.</font></i></div></center><h2>More than half of the ingells are nalill.</h2></body>,True,NULL,508
1572967420,dee909ab4796a05127167fd77d641149,Question2,36,0,Test-More-than-half-65-tecker-biller,NULL,<head><style>div {background-color: #dbd9d9; width: 300px; border: 7px solid #3FB8AF; padding: 20px; margin: 20px;}</style></head><body><center><div><i><font size='4'>65% of the teckers are biller.</font></i></div></center><h2>More than half of the teckers are biller.</h2></body>,True,NULL,468
1572967420,dee909ab4796a05127167fd77d641149,Question2,69,0,Test-Some-30-shamer-bloif,NULL,<head><style>div {background-color: #dbd9d9; width: 300px; border: 7px solid #3FB8AF; padding: 20px; margin: 20px;}</style></head><body><center><div><i><font size='4'>30% of the shamers are bloif.</font></i></div></center><h2>Some of the shamers are bloif.</h2></body>,True,NULL,996
1572967420,dee909ab4796a05127167fd77d641149,Question2,124,0,Test-All-Neg-37-tiklet-hullaw,NULL,<head><style>div {background-color: #dbd9d9; width: 300px; border: 7px solid #3FB8AF; padding: 20px; margin: 20px;}</style></head><body><center><div><i><font size='4'>37% of the tiklets are hullaw.</font></i></div></center><h2>It is not the case that all of the tiklets are hullaw.</h2></body>,False,NULL,780
# The lines below this comment are in groups of 2.
# The formats of the lines in each of these groups are as follows:
#
# Line 1:
#     Col. 1: Time results were received.
#     Col. 2: MD5 hash of participant's IP address.
#     Col. 3: Controller name.
#     Col. 4: Item number.
#     Col. 5: Element number.
#     Col. 6: Type.
#     Col. 7: Group.
#     Col. 8: html.
#     Col. 9: value.
# Line 2:
#     Col. 1: Time results were received.
#     Col. 2: MD5 hash of participant's IP address.
#     Col. 3: Controller name.
#     Col. 4: Item number.
#     Col. 5: Element number.
#     Col. 6: Type.
#     Col. 7: Group.
#     Col. 8: Field name.
#     Col. 9: Field value.
1572967420,dee909ab4796a05127167fd77d641149,SliderQuestion1,4,0,Criterionpos1,NULL,<center><p style="font-family: Book Antiqua%2C Palatino%2C serif; font-size: 1.4em;">More than half of the kallils are namib.</p><p align="justify" style="width: 500px;" %2C=""><i>In this study%2C we are interested in how people interpret sentences which begin with "More than half of the"%2C such as the sentence above. We would like to know what your criterion was in the task you have just completed to say that such sentences are true. What is the minimum percentage that you would understand of kallils to be namib? Please position the slider below as close as possible to that percentage. Once you have done that%2C press 'Continue'.</i></p></center>,29.98
1572967420,dee909ab4796a05127167fd77d641149,NewForm,151,0,form,NULL,language,English
# Columns below this comment are as follows:
# 1. Time results were received.
# 2. MD5 hash of participant's IP address.
# 3. Controller name.
# 4. Item number.
# 5. Element number.
# 6. Type.
# 7. Group.
# 8. Field name.
# 9. Field value.
1572967420,dee909ab4796a05127167fd77d641149,NewForm,151,0,form,NULL,ProlificID,57025e9a7a84480009b65715
1572967420,dee909ab4796a05127167fd77d641149,NewForm,151,0,form,NULL,comment,
1572967420,dee909ab4796a05127167fd77d641149,NewForm,151,0,form,NULL,_REACTION_TIME_,17400
#
# Results on Tuesday November 05 2019 15:26:55 UTC.
# USER AGENT: Mozilla/5.0 (Windows NT 10.0; Win64; x64) AppleWebKit/537.36 (KHTML, like Gecko) Chrome/78.0.3904.87 Safari/537.36
# Design number was non-random = 1
#
# Columns below this comment are as follows:
# 1. Time results were received.
# 2. MD5 hash of participant's IP address.
# 3. Controller name.
# 4. Item number.
# 5. Element number.
# 6. Type.
# 7. Group.
# 8. Field name.
# 9. Field value.
1572967615,207795ac3ebcea6d1cc1d5f0f9b50930,NewForm,0,0,agreement,NULL,,yes
1572967615,207795ac3ebcea6d1cc1d5f0f9b50930,NewForm,0,0,agreement,NULL,_REACTION_TIME_,4849
1572967615,207795ac3ebcea6d1cc1d5f0f9b50930,NewForm,1,0,instructions1,NULL,,yes
1572967615,207795ac3ebcea6d1cc1d5f0f9b50930,NewForm,1,0,instructions1,NULL,_REACTION_TIME_,4044
# Columns below this comment are as follows:
# 1. Time results were received.
# 2. MD5 hash of participant's IP address.
# 3. Controller name.
# 4. Item number.
# 5. Element number.
# 6. Type.
# 7. Group.
# 8. Question (NULL if none).
# 9. Answer.
# 10. Whether or not answer was correct (NULL if N/A).
# 11. Time taken to answer.
1572967615,207795ac3ebcea6d1cc1d5f0f9b50930,Question2,5,0,practice-some,NULL,<head><style>div {background-color: #dbd9d9; width: 300px; border: 7px solid #3FB8AF; padding: 20px; margin: 20px;}</style></head><body><div><i><font size='4'> 20% of the glerbs are fizda.</font></i></div><h2>Some of the glerbs are fizda.</h2></body>,True,NULL,3270
1572967615,207795ac3ebcea6d1cc1d5f0f9b50930,Question2,6,0,practice-all,NULL,<head><style>div {background-color: #dbd9d9; width: 300px; border: 7px solid #3FB8AF; padding: 20px; margin: 20px;}</style></head><body><div><i><font size='4'> 82% of the thonks are crangly.</font></i></div><h2>All of the thonks are crangly.</h2></body>,False,NULL,1874
1572967615,207795ac3ebcea6d1cc1d5f0f9b50930,Question2,43,0,Test-More-than-half-92-sporer-firtly,NULL,<head><style>div {background-color: #dbd9d9; width: 300px; border: 7px solid #3FB8AF; padding: 20px; margin: 20px;}</style></head><body><center><div><i><font size='4'>92% of the sporers are firtly.</font></i></div></center><h2>More than half of the sporers are firtly.</h2></body>,True,NULL,2806
1572967615,207795ac3ebcea6d1cc1d5f0f9b50930,Question2,132,0,Test-All-Neg-55-tecker-biller,NULL,<head><style>div {background-color: #dbd9d9; width: 300px; border: 7px solid #3FB8AF; padding: 20px; margin: 20px;}</style></head><body><center><div><i><font size='4'>55% of the teckers are biller.</font></i></div></center><h2>It is not the case that all of the teckers are biller.</h2></body>,True,NULL,2616
1572967615,207795ac3ebcea6d1cc1d5f0f9b50930,Question2,115,0,Test-Some-Neg-29-coamin-mucond,NULL,<head><style>div {background-color: #dbd9d9; width: 300px; border: 7px solid #3FB8AF; padding: 20px; margin: 20px;}</style></head><body><center><div><i><font size='4'>29% of the coamins are mucond.</font></i></div></center><h2>It is not the case that some of the coamins are mucond.</h2></body>,False,NULL,3742
1572967615,207795ac3ebcea6d1cc1d5f0f9b50930,Question2,36,0,Test-More-than-half-65-tecker-biller,NULL,<head><style>div {background-color: #dbd9d9; width: 300px; border: 7px solid #3FB8AF; padding: 20px; margin: 20px;}</style></head><body><center><div><i><font size='4'>65% of the teckers are biller.</font></i></div></center><h2>More than half of the teckers are biller.</h2></body>,True,NULL,2151
1572967615,207795ac3ebcea6d1cc1d5f0f9b50930,Question2,111,0,Test-Some-Neg-1-schook-jabant,NULL,<head><style>div {background-color: #dbd9d9; width: 300px; border: 7px solid #3FB8AF; padding: 20px; margin: 20px;}</style></head><body><center><div><i><font size='4'>1% of the schooks are jabant.</font></i></div></center><h2>It is not the case that some of the schooks are jabant.</h2></body>,False,NULL,4087
1572967615,207795ac3ebcea6d1cc1d5f0f9b50930,Question2,30,0,Test-More-than-half-38-monter-melelt,NULL,<head><style>div {background-color: #dbd9d9; width: 300px; border: 7px solid #3FB8AF; padding: 20px; margin: 20px;}</style></head><body><center><div><i><font size='4'>38% of the monters are melelt.</font></i></div></center><h2>More than half of the monters are melelt.</h2></body>,False,NULL,2029
1572967615,207795ac3ebcea6d1cc1d5f0f9b50930,Question2,87,0,Test-Some-61-menner-nandow,NULL,<head><style>div {background-color: #dbd9d9; width: 300px; border: 7px solid #3FB8AF; padding: 20px; margin: 20px;}</style></head><body><center><div><i><font size='4'>61% of the menners are nandow.</font></i></div></center><h2>Some of the menners are nandow.</h2></body>,True,NULL,2349
1572967615,207795ac3ebcea6d1cc1d5f0f9b50930,Question2,46,0,Test-More-than-half-81-padnet-fanely,NULL,<head><style>div {background-color: #dbd9d9; width: 300px; border: 7px solid #3FB8AF; padding: 20px; margin: 20px;}</style></head><body><center><div><i><font size='4'>81% of the padnets are fanely.</font></i></div></center><h2>More than half of the padnets are fanely.</h2></body>,True,NULL,1981
1572967615,207795ac3ebcea6d1cc1d5f0f9b50930,Question2,134,0,Test-All-Neg-74-raster-movell,NULL,<head><style>div {background-color: #dbd9d9; width: 300px; border: 7px solid #3FB8AF; padding: 20px; margin: 20px;}</style></head><body><center><div><i><font size='4'>74% of the rasters are movell.</font></i></div></center><h2>It is not the case that all of the rasters are movell.</h2></body>,True,NULL,3504
1572967615,207795ac3ebcea6d1cc1d5f0f9b50930,Question2,45,0,Test-More-than-half-99-pobbit-spippy,NULL,<head><style>div {background-color: #dbd9d9; width: 300px; border: 7px solid #3FB8AF; padding: 20px; margin: 20px;}</style></head><body><center><div><i><font size='4'>99% of the pobbits are spippy.</font></i></div></center><h2>More than half of the pobbits are spippy.</h2></body>,True,NULL,2092
1572967615,207795ac3ebcea6d1cc1d5f0f9b50930,Question2,8,0,Test-More-than-half-13-beckel-racual,NULL,<head><style>div {background-color: #dbd9d9; width: 300px; border: 7px solid #3FB8AF; padding: 20px; margin: 20px;}</style></head><body><center><div><i><font size='4'>13% of the beckels are racual.</font></i></div></center><h2>More than half of the beckels are racual.</h2></body>,False,NULL,2334
1572967615,207795ac3ebcea6d1cc1d5f0f9b50930,Question2,38,0,Test-More-than-half-71-raster-movell,NULL,<head><style>div {background-color: #dbd9d9; width: 300px; border: 7px solid #3FB8AF; padding: 20px; margin: 20px;}</style></head><body><center><div><i><font size='4'>71% of the rasters are movell.</font></i></div></center><h2>More than half of the rasters are movell.</h2></body>,True,NULL,1890
1572967615,207795ac3ebcea6d1cc1d5f0f9b50930,Question2,54,0,Test-More-than-half-96-ingell-nalill,NULL,<head><style>div {background-color: #dbd9d9; width: 300px; border: 7px solid #3FB8AF; padding: 20px; margin: 20px;}</style></head><body><center><div><i><font size='4'>96% of the ingells are nalill.</font></i></div></center><h2>More than half of the ingells are nalill.</h2></body>,True,NULL,1901
1572967615,207795ac3ebcea6d1cc1d5f0f9b50930,Question2,130,0,Test-All-Neg-61-russer-huttle,NULL,<head><style>div {background-color: #dbd9d9; width: 300px; border: 7px solid #3FB8AF; padding: 20px; margin: 20px;}</style></head><body><center><div><i><font size='4'>61% of the russers are huttle.</font></i></div></center><h2>It is not the case that all of the russers are huttle.</h2></body>,True,NULL,2993
1572967615,207795ac3ebcea6d1cc1d5f0f9b50930,Question2,41,0,Test-More-than-half-68-pliper-sesare,NULL,<head><style>div {background-color: #dbd9d9; width: 300px; border: 7px solid #3FB8AF; padding: 20px; margin: 20px;}</style></head><body><center><div><i><font size='4'>68% of the plipers are sesare.</font></i></div></center><h2>More than half of the plipers are sesare.</h2></body>,True,NULL,2148
1572967615,207795ac3ebcea6d1cc1d5f0f9b50930,Question2,106,0,Test-All-Neg-9-chadop-shaple,NULL,<head><style>div {background-color: #dbd9d9; width: 300px; border: 7px solid #3FB8AF; padding: 20px; margin: 20px;}</style></head><body><center><div><i><font size='4'>9% of the chadops are shaple.</font></i></div></center><h2>It is not the case that all of the chadops are shaple.</h2></body>,True,NULL,3205
1572967615,207795ac3ebcea6d1cc1d5f0f9b50930,Question2,52,0,Test-More-than-half-85-chevel-podden,NULL,<head><style>div {background-color: #dbd9d9; width: 300px; border: 7px solid #3FB8AF; padding: 20px; margin: 20px;}</style></head><body><center><div><i><font size='4'>85% of the chevels are podden.</font></i></div></center><h2>More than half of the chevels are podden.</h2></body>,True,NULL,1733
1572967615,207795ac3ebcea6d1cc1d5f0f9b50930,Question2,137,0,Test-Some-Neg-53-coppar-hunene,NULL,<head><style>div {background-color: #dbd9d9; width: 300px; border: 7px solid #3FB8AF; padding: 20px; margin: 20px;}</style></head><body><center><div><i><font size='4'>53% of the coppars are hunene.</font></i></div></center><h2>It is not the case that some of the coppars are hunene.</h2></body>,False,NULL,2382
1572967615,207795ac3ebcea6d1cc1d5f0f9b50930,Question2,31,0,Test-More-than-half-70-strant-potind,NULL,<head><style>div {background-color: #dbd9d9; width: 300px; border: 7px solid #3FB8AF; padding: 20px; margin: 20px;}</style></head><body><center><div><i><font size='4'>70% of the strants are potind.</font></i></div></center><h2>More than half of the strants are potind.</h2></body>,True,NULL,1475
1572967615,207795ac3ebcea6d1cc1d5f0f9b50930,Question2,79,0,Test-Some-52-strant-potind,NULL,<head><style>div {background-color: #dbd9d9; width: 300px; border: 7px solid #3FB8AF; padding: 20px; margin: 20px;}</style></head><body><center><div><i><font size='4'>52% of the strants are potind.</font></i></div></center><h2>Some of the strants are potind.</h2></body>,True,NULL,1653
1572967615,207795ac3ebcea6d1cc1d5f0f9b50930,Question2,26,0,Test-More-than-half-41-zetten-unfobs,NULL,<head><style>div {background-color: #dbd9d9; width: 300px; border: 7px solid #3FB8AF; padding: 20px; margin: 20px;}</style></head><body><center><div><i><font size='4'>41% of the zettens are unfobs.</font></i></div></center><h2>More than half of the zettens are unfobs.</h2></body>,False,NULL,1670
1572967615,207795ac3ebcea6d1cc1d5f0f9b50930,Question2,64,0,Test-All-6-clidge-hensly,NULL,<head><style>div {background-color: #dbd9d9; width: 300px; border: 7px solid #3FB8AF; padding: 20px; margin: 20px;}</style></head><body><center><div><i><font size='4'>6% of the clidges are hensly.</font></i></div></center><h2>All of the clidges are hensly.</h2></body>,False,NULL,1614
1572967615,207795ac3ebcea6d1cc1d5f0f9b50930,Question2,97,0,Test-Some-76-jallem-sildal,NULL,<head><style>div {background-color: #dbd9d9; width: 300px; border: 7px solid #3FB8AF; padding: 20px; margin: 20px;}</style></head><body><center><div><i><font size='4'>76% of the jallems are sildal.</font></i></div></center><h2>Some of the jallems are sildal.</h2></body>,True,NULL,3142
1572967615,207795ac3ebcea6d1cc1d5f0f9b50930,Question2,56,0,Test-All-17-kustle-reshix,NULL,<head><style>div {background-color: #dbd9d9; width: 300px; border: 7px solid #3FB8AF; padding: 20px; margin: 20px;}</style></head><body><center><div><i><font size='4'>17% of the kustles are reshix.</font></i></div></center><h2>All of the kustles are reshix.</h2></body>,False,NULL,2443
1572967615,207795ac3ebcea6d1cc1d5f0f9b50930,Question2,18,0,Test-More-than-half-9-shrile-athoid,NULL,<head><style>div {background-color: #dbd9d9; width: 300px; border: 7px solid #3FB8AF; padding: 20px; margin: 20px;}</style></head><body><center><div><i><font size='4'>9% of the shriles are athoid.</font></i></div></center><h2>More than half of the shriles are athoid.</h2></body>,False,NULL,3140
1572967615,207795ac3ebcea6d1cc1d5f0f9b50930,Question2,139,0,Test-Some-Neg-93-pirter-secent,NULL,<head><style>div {background-color: #dbd9d9; width: 300px; border: 7px solid #3FB8AF; padding: 20px; margin: 20px;}</style></head><body><center><div><i><font size='4'>93% of the pirters are secent.</font></i></div></center><h2>It is not the case that some of the pirters are secent.</h2></body>,False,NULL,3995
1572967615,207795ac3ebcea6d1cc1d5f0f9b50930,Question2,147,0,Test-Some-Neg-95-chevel-podden,NULL,<head><style>div {background-color: #dbd9d9; width: 300px; border: 7px solid #3FB8AF; padding: 20px; margin: 20px;}</style></head><body><center><div><i><font size='4'>95% of the chevels are podden.</font></i></div></center><h2>It is not the case that some of the chevels are podden.</h2></body>,False,NULL,2111
1572967615,207795ac3ebcea6d1cc1d5f0f9b50930,Question2,55,0,Test-Some-19-kustle-reshix,NULL,<head><style>div {background-color: #dbd9d9; width: 300px; border: 7px solid #3FB8AF; padding: 20px; margin: 20px;}</style></head><body><center><div><i><font size='4'>19% of the kustles are reshix.</font></i></div></center><h2>Some of the kustles are reshix.</h2></body>,True,NULL,1753
1572967615,207795ac3ebcea6d1cc1d5f0f9b50930,Question2,110,0,Test-All-Neg-0-gukbar-soarse,NULL,<head><style>div {background-color: #dbd9d9; width: 300px; border: 7px solid #3FB8AF; padding: 20px; margin: 20px;}</style></head><body><center><div><i><font size='4'>0% of the gukbars are soarse.</font></i></div></center><h2>It is not the case that all of the gukbars are soarse.</h2></body>,True,NULL,2910
1572967615,207795ac3ebcea6d1cc1d5f0f9b50930,Question2,48,0,Test-More-than-half-86-devole-sholly,NULL,<head><style>div {background-color: #dbd9d9; width: 300px; border: 7px solid #3FB8AF; padding: 20px; margin: 20px;}</style></head><body><center><div><i><font size='4'>86% of the devoles are sholly.</font></i></div></center><h2>More than half of the devoles are sholly.</h2></body>,True,NULL,1689
1572967615,207795ac3ebcea6d1cc1d5f0f9b50930,Question2,61,0,Test-Some-15-mecket-plumry,NULL,<head><style>div {background-color: #dbd9d9; width: 300px; border: 7px solid #3FB8AF; padding: 20px; margin: 20px;}</style></head><body><center><div><i><font size='4'>15% of the meckets are plumry.</font></i></div></center><h2>Some of the meckets are plumry.</h2></body>,True,NULL,1623
1572967615,207795ac3ebcea6d1cc1d5f0f9b50930,Question2,44,0,Test-More-than-half-77-pirter-secent,NULL,<head><style>div {background-color: #dbd9d9; width: 300px; border: 7px solid #3FB8AF; padding: 20px; margin: 20px;}</style></head><body><center><div><i><font size='4'>77% of the pirters are secent.</font></i></div></center><h2>More than half of the pirters are secent.</h2></body>,True,NULL,1988
1572967615,207795ac3ebcea6d1cc1d5f0f9b50930,Question2,32,0,Test-More-than-half-59-pluset-stubad,NULL,<head><style>div {background-color: #dbd9d9; width: 300px; border: 7px solid #3FB8AF; padding: 20px; margin: 20px;}</style></head><body><center><div><i><font size='4'>59% of the plusets are stubad.</font></i></div></center><h2>More than half of the plusets are stubad.</h2></body>,True,NULL,4166
1572967615,207795ac3ebcea6d1cc1d5f0f9b50930,Question2,65,0,Test-Some-3-spunge-wenple,NULL,<head><style>div {background-color: #dbd9d9; width: 300px; border: 7px solid #3FB8AF; padding: 20px; margin: 20px;}</style></head><body><center><div><i><font size='4'>3% of the spunges are wenple.</font></i></div></center><h2>Some of the spunges are wenple.</h2></body>,True,NULL,1341
1572967615,207795ac3ebcea6d1cc1d5f0f9b50930,Question2,20,0,Test-More-than-half-29-coamin-mucond,NULL,<head><style>div {background-color: #dbd9d9; width: 300px; border: 7px solid #3FB8AF; padding: 20px; margin: 20px;}</style></head><body><center><div><i><font size='4'>29% of the coamins are mucond.</font></i></div></center><h2>More than half of the coamins are mucond.</h2></body>,False,NULL,1983
1572967615,207795ac3ebcea6d1cc1d5f0f9b50930,Question2,40,0,Test-More-than-half-52-bamet-unzast,NULL,<head><style>div {background-color: #dbd9d9; width: 300px; border: 7px solid #3FB8AF; padding: 20px; margin: 20px;}</style></head><body><center><div><i><font size='4'>52% of the bamets are unzast.</font></i></div></center><h2>More than half of the bamets are unzast.</h2></body>,True,NULL,1415
1572967615,207795ac3ebcea6d1cc1d5f0f9b50930,Question2,82,0,Test-All-52-umpond-marire,NULL,<head><style>div {background-color: #dbd9d9; width: 300px; border: 7px solid #3FB8AF; padding: 20px; margin: 20px;}</style></head><body><center><div><i><font size='4'>52% of the umponds are marire.</font></i></div></center><h2>All of the umponds are marire.</h2></body>,False,NULL,1516
1572967615,207795ac3ebcea6d1cc1d5f0f9b50930,Question2,60,0,Test-All-21-chulk-vulhor,NULL,<head><style>div {background-color: #dbd9d9; width: 300px; border: 7px solid #3FB8AF; padding: 20px; margin: 20px;}</style></head><body><center><div><i><font size='4'>21% of the chulks are vulhor.</font></i></div></center><h2>All of the chulks are vulhor.</h2></body>,False,NULL,1710
1572967615,207795ac3ebcea6d1cc1d5f0f9b50930,Question2,90,0,Test-All-70-pliper-sesare,NULL,<head><style>div {background-color: #dbd9d9; width: 300px; border: 7px solid #3FB8AF; padding: 20px; margin: 20px;}</style></head><body><center><div><i><font size='4'>70% of the plipers are sesare.</font></i></div></center><h2>All of the plipers are sesare.</h2></body>,False,NULL,1526
1572967615,207795ac3ebcea6d1cc1d5f0f9b50930,Question2,146,0,Test-All-Neg-80-dorder-coggon,NULL,<head><style>div {background-color: #dbd9d9; width: 300px; border: 7px solid #3FB8AF; padding: 20px; margin: 20px;}</style></head><body><center><div><i><font size='4'>80% of the dorders are coggon.</font></i></div></center><h2>It is not the case that all of the dorders are coggon.</h2></body>,True,NULL,2422
1572967615,207795ac3ebcea6d1cc1d5f0f9b50930,Question2,35,0,Test-More-than-half-67-cather-funder,NULL,<head><style>div {background-color: #dbd9d9; width: 300px; border: 7px solid #3FB8AF; padding: 20px; margin: 20px;}</style></head><body><center><div><i><font size='4'>67% of the cathers are funder.</font></i></div></center><h2>More than half of the cathers are funder.</h2></body>,True,NULL,3127
1572967615,207795ac3ebcea6d1cc1d5f0f9b50930,Question2,117,0,Test-Some-Neg-40-middor-drooty,NULL,<head><style>div {background-color: #dbd9d9; width: 300px; border: 7px solid #3FB8AF; padding: 20px; margin: 20px;}</style></head><body><center><div><i><font size='4'>40% of the middors are drooty.</font></i></div></center><h2>It is not the case that some of the middors are drooty.</h2></body>,False,NULL,2443
1572967615,207795ac3ebcea6d1cc1d5f0f9b50930,Question2,96,0,Test-All-77-boddle-molill,NULL,<head><style>div {background-color: #dbd9d9; width: 300px; border: 7px solid #3FB8AF; padding: 20px; margin: 20px;}</style></head><body><center><div><i><font size='4'>77% of the boddles are molill.</font></i></div></center><h2>All of the boddles are molill.</h2></body>,False,NULL,1572
1572967615,207795ac3ebcea6d1cc1d5f0f9b50930,Question2,59,0,Test-Some-4-chulk-vulhor,NULL,<head><style>div {background-color: #dbd9d9; width: 300px; border: 7px solid #3FB8AF; padding: 20px; margin: 20px;}</style></head><body><center><div><i><font size='4'>4% of the chulks are vulhor.</font></i></div></center><h2>Some of the chulks are vulhor.</h2></body>,True,NULL,1638
1572967615,207795ac3ebcea6d1cc1d5f0f9b50930,Question2,7,0,Test-More-than-half-3-kustle-reshix,NULL,<head><style>div {background-color: #dbd9d9; width: 300px; border: 7px solid #3FB8AF; padding: 20px; margin: 20px;}</style></head><body><center><div><i><font size='4'>3% of the kustles are reshix.</font></i></div></center><h2>More than half of the kustles are reshix.</h2></body>,False,NULL,1327
1572967615,207795ac3ebcea6d1cc1d5f0f9b50930,Question2,129,0,Test-Some-Neg-58-russer-huttle,NULL,<head><style>div {background-color: #dbd9d9; width: 300px; border: 7px solid #3FB8AF; padding: 20px; margin: 20px;}</style></head><body><center><div><i><font size='4'>58% of the russers are huttle.</font></i></div></center><h2>It is not the case that some of the russers are huttle.</h2></body>,False,NULL,3087
1572967615,207795ac3ebcea6d1cc1d5f0f9b50930,Question2,14,0,Test-More-than-half-7-gukbar-soarse,NULL,<head><style>div {background-color: #dbd9d9; width: 300px; border: 7px solid #3FB8AF; padding: 20px; margin: 20px;}</style></head><body><center><div><i><font size='4'>7% of the gukbars are soarse.</font></i></div></center><h2>More than half of the gukbars are soarse.</h2></body>,False,NULL,1248
1572967615,207795ac3ebcea6d1cc1d5f0f9b50930,Question2,104,0,Test-All-Neg-11-beckel-racual,NULL,<head><style>div {background-color: #dbd9d9; width: 300px; border: 7px solid #3FB8AF; padding: 20px; margin: 20px;}</style></head><body><center><div><i><font size='4'>11% of the beckels are racual.</font></i></div></center><h2>It is not the case that all of the beckels are racual.</h2></body>,True,NULL,2844
1572967615,207795ac3ebcea6d1cc1d5f0f9b50930,Question2,120,0,Test-All-Neg-33-pengyl-sedest,NULL,<head><style>div {background-color: #dbd9d9; width: 300px; border: 7px solid #3FB8AF; padding: 20px; margin: 20px;}</style></head><body><center><div><i><font size='4'>33% of the pengyls are sedest.</font></i></div></center><h2>It is not the case that all of the pengyls are sedest.</h2></body>,True,NULL,2036
1572967615,207795ac3ebcea6d1cc1d5f0f9b50930,Question2,39,0,Test-More-than-half-66-menner-nandow,NULL,<head><style>div {background-color: #dbd9d9; width: 300px; border: 7px solid #3FB8AF; padding: 20px; margin: 20px;}</style></head><body><center><div><i><font size='4'>66% of the menners are nandow.</font></i></div></center><h2>More than half of the menners are nandow.</h2></body>,True,NULL,1443
1572967615,207795ac3ebcea6d1cc1d5f0f9b50930,Question2,13,0,Test-More-than-half-20-mecket-plumry,NULL,<head><style>div {background-color: #dbd9d9; width: 300px; border: 7px solid #3FB8AF; padding: 20px; margin: 20px;}</style></head><body><center><div><i><font size='4'>20% of the meckets are plumry.</font></i></div></center><h2>More than half of the meckets are plumry.</h2></body>,False,NULL,3213
1572967615,207795ac3ebcea6d1cc1d5f0f9b50930,Question2,88,0,Test-All-69-menner-nandow,NULL,<head><style>div {background-color: #dbd9d9; width: 300px; border: 7px solid #3FB8AF; padding: 20px; margin: 20px;}</style></head><body><center><div><i><font size='4'>69% of the menners are nandow.</font></i></div></center><h2>All of the menners are nandow.</h2></body>,False,NULL,1051
1572967615,207795ac3ebcea6d1cc1d5f0f9b50930,Question2,105,0,Test-Some-Neg-18-chadop-shaple,NULL,<head><style>div {background-color: #dbd9d9; width: 300px; border: 7px solid #3FB8AF; padding: 20px; margin: 20px;}</style></head><body><center><div><i><font size='4'>18% of the chadops are shaple.</font></i></div></center><h2>It is not the case that some of the chadops are shaple.</h2></body>,False,NULL,3260
1572967615,207795ac3ebcea6d1cc1d5f0f9b50930,Question2,42,0,Test-More-than-half-73-coppar-hunene,NULL,<head><style>div {background-color: #dbd9d9; width: 300px; border: 7px solid #3FB8AF; padding: 20px; margin: 20px;}</style></head><body><center><div><i><font size='4'>73% of the coppars are hunene.</font></i></div></center><h2>More than half of the coppars are hunene.</h2></body>,True,NULL,1521
1572967615,207795ac3ebcea6d1cc1d5f0f9b50930,Question2,149,0,Test-Some-Neg-87-ingell-nalill,NULL,<head><style>div {background-color: #dbd9d9; width: 300px; border: 7px solid #3FB8AF; padding: 20px; margin: 20px;}</style></head><body><center><div><i><font size='4'>87% of the ingells are nalill.</font></i></div></center><h2>It is not the case that some of the ingells are nalill.</h2></body>,False,NULL,1844
1572967615,207795ac3ebcea6d1cc1d5f0f9b50930,Question2,86,0,Test-All-60-birler-enciad,NULL,<head><style>div {background-color: #dbd9d9; width: 300px; border: 7px solid #3FB8AF; padding: 20px; margin: 20px;}</style></head><body><center><div><i><font size='4'>60% of the birlers are enciad.</font></i></div></center><h2>All of the birlers are enciad.</h2></body>,False,NULL,2535
1572967615,207795ac3ebcea6d1cc1d5f0f9b50930,Question2,23,0,Test-More-than-half-46-ancit-smeath,NULL,<head><style>div {background-color: #dbd9d9; width: 300px; border: 7px solid #3FB8AF; padding: 20px; margin: 20px;}</style></head><body><center><div><i><font size='4'>46% of the ancits are smeath.</font></i></div></center><h2>More than half of the ancits are smeath.</h2></body>,False,NULL,1638
1572967615,207795ac3ebcea6d1cc1d5f0f9b50930,Question2,58,0,Test-All-16-puggle-entand,NULL,<head><style>div {background-color: #dbd9d9; width: 300px; border: 7px solid #3FB8AF; padding: 20px; margin: 20px;}</style></head><body><center><div><i><font size='4'>16% of the puggles are entand.</font></i></div></center><h2>All of the puggles are entand.</h2></body>,False,NULL,3366
1572967615,207795ac3ebcea6d1cc1d5f0f9b50930,Question2,145,0,Test-Some-Neg-77-dorder-coggon,NULL,<head><style>div {background-color: #dbd9d9; width: 300px; border: 7px solid #3FB8AF; padding: 20px; margin: 20px;}</style></head><body><center><div><i><font size='4'>77% of the dorders are coggon.</font></i></div></center><h2>It is not the case that some of the dorders are coggon.</h2></body>,False,NULL,3063
1572967615,207795ac3ebcea6d1cc1d5f0f9b50930,Question2,127,0,Test-Some-Neg-51-pluset-stubad,NULL,<head><style>div {background-color: #dbd9d9; width: 300px; border: 7px solid #3FB8AF; padding: 20px; margin: 20px;}</style></head><body><center><div><i><font size='4'>51% of the plusets are stubad.</font></i></div></center><h2>It is not the case that some of the plusets are stubad.</h2></body>,False,NULL,1517
1572967615,207795ac3ebcea6d1cc1d5f0f9b50930,Question2,29,0,Test-More-than-half-33-shurrie-preser,NULL,<head><style>div {background-color: #dbd9d9; width: 300px; border: 7px solid #3FB8AF; padding: 20px; margin: 20px;}</style></head><body><center><div><i><font size='4'>33% of the shurries are preser.</font></i></div></center><h2>More than half of the shurries are preser.</h2></body>,False,NULL,2206
1572967615,207795ac3ebcea6d1cc1d5f0f9b50930,Question2,15,0,Test-More-than-half-17-clidge-hensly,NULL,<head><style>div {background-color: #dbd9d9; width: 300px; border: 7px solid #3FB8AF; padding: 20px; margin: 20px;}</style></head><body><center><div><i><font size='4'>17% of the clidges are hensly.</font></i></div></center><h2>More than half of the clidges are hensly.</h2></body>,False,NULL,2238
1572967615,207795ac3ebcea6d1cc1d5f0f9b50930,Question2,103,0,Test-Some-Neg-21-beckel-racual,NULL,<head><style>div {background-color: #dbd9d9; width: 300px; border: 7px solid #3FB8AF; padding: 20px; margin: 20px;}</style></head><body><center><div><i><font size='4'>21% of the beckels are racual.</font></i></div></center><h2>It is not the case that some of the beckels are racual.</h2></body>,False,NULL,2574
1572967615,207795ac3ebcea6d1cc1d5f0f9b50930,Question2,33,0,Test-More-than-half-53-umpond-marire,NULL,<head><style>div {background-color: #dbd9d9; width: 300px; border: 7px solid #3FB8AF; padding: 20px; margin: 20px;}</style></head><body><center><div><i><font size='4'>53% of the umponds are marire.</font></i></div></center><h2>More than half of the umponds are marire.</h2></body>,True,NULL,1925
1572967615,207795ac3ebcea6d1cc1d5f0f9b50930,Question2,135,0,Test-Some-Neg-69-bamet-unzast,NULL,<head><style>div {background-color: #dbd9d9; width: 300px; border: 7px solid #3FB8AF; padding: 20px; margin: 20px;}</style></head><body><center><div><i><font size='4'>69% of the bamets are unzast.</font></i></div></center><h2>It is not the case that some of the bamets are unzast.</h2></body>,False,NULL,2319
1572967615,207795ac3ebcea6d1cc1d5f0f9b50930,Question2,62,0,Test-All-19-mecket-plumry,NULL,<head><style>div {background-color: #dbd9d9; width: 300px; border: 7px solid #3FB8AF; padding: 20px; margin: 20px;}</style></head><body><center><div><i><font size='4'>19% of the meckets are plumry.</font></i></div></center><h2>All of the meckets are plumry.</h2></body>,False,NULL,1118
1572967615,207795ac3ebcea6d1cc1d5f0f9b50930,Question2,94,0,Test-All-79-pobbit-spippy,NULL,<head><style>div {background-color: #dbd9d9; width: 300px; border: 7px solid #3FB8AF; padding: 20px; margin: 20px;}</style></head><body><center><div><i><font size='4'>79% of the pobbits are spippy.</font></i></div></center><h2>All of the pobbits are spippy.</h2></body>,False,NULL,1189
1572967615,207795ac3ebcea6d1cc1d5f0f9b50930,Question2,69,0,Test-Some-30-shamer-bloif,NULL,<head><style>div {background-color: #dbd9d9; width: 300px; border: 7px solid #3FB8AF; padding: 20px; margin: 20px;}</style></head><body><center><div><i><font size='4'>30% of the shamers are bloif.</font></i></div></center><h2>Some of the shamers are bloif.</h2></body>,True,NULL,1598
1572967615,207795ac3ebcea6d1cc1d5f0f9b50930,Question2,10,0,Test-More-than-half-6-chadop-shaple,NULL,<head><style>div {background-color: #dbd9d9; width: 300px; border: 7px solid #3FB8AF; padding: 20px; margin: 20px;}</style></head><body><center><div><i><font size='4'>6% of the chadops are shaple.</font></i></div></center><h2>More than half of the chadops are shaple.</h2></body>,False,NULL,2238
1572967615,207795ac3ebcea6d1cc1d5f0f9b50930,Question2,21,0,Test-More-than-half-28-shamer-bloif,NULL,<head><style>div {background-color: #dbd9d9; width: 300px; border: 7px solid #3FB8AF; padding: 20px; margin: 20px;}</style></head><body><center><div><i><font size='4'>28% of the shamers are bloif.</font></i></div></center><h2>More than half of the shamers are bloif.</h2></body>,False,NULL,1682
1572967615,207795ac3ebcea6d1cc1d5f0f9b50930,Question2,121,0,Test-Some-Neg-31-zetten-unfobs,NULL,<head><style>div {background-color: #dbd9d9; width: 300px; border: 7px solid #3FB8AF; padding: 20px; margin: 20px;}</style></head><body><center><div><i><font size='4'>31% of the zettens are unfobs.</font></i></div></center><h2>It is not the case that some of the zettens are unfobs.</h2></body>,False,NULL,2374
1572967615,207795ac3ebcea6d1cc1d5f0f9b50930,Question2,28,0,Test-More-than-half-44-tiklet-hullaw,NULL,<head><style>div {background-color: #dbd9d9; width: 300px; border: 7px solid #3FB8AF; padding: 20px; margin: 20px;}</style></head><body><center><div><i><font size='4'>44% of the tiklets are hullaw.</font></i></div></center><h2>More than half of the tiklets are hullaw.</h2></body>,False,NULL,1182
1572967615,207795ac3ebcea6d1cc1d5f0f9b50930,Question2,17,0,Test-More-than-half-11-spunge-wenple,NULL,<head><style>div {background-color: #dbd9d9; width: 300px; border: 7px solid #3FB8AF; padding: 20px; margin: 20px;}</style></head><body><center><div><i><font size='4'>11% of the spunges are wenple.</font></i></div></center><h2>More than half of the spunges are wenple.</h2></body>,False,NULL,1574
1572967615,207795ac3ebcea6d1cc1d5f0f9b50930,Question2,76,0,Test-All-30-fleeve-scalfs,NULL,<head><style>div {background-color: #dbd9d9; width: 300px; border: 7px solid #3FB8AF; padding: 20px; margin: 20px;}</style></head><body><center><div><i><font size='4'>30% of the fleeves are scalfs.</font></i></div></center><h2>All of the fleeves are scalfs.</h2></body>,False,NULL,1174
1572967615,207795ac3ebcea6d1cc1d5f0f9b50930,Question2,108,0,Test-All-Neg-24-werner-hurmer,NULL,<head><style>div {background-color: #dbd9d9; width: 300px; border: 7px solid #3FB8AF; padding: 20px; margin: 20px;}</style></head><body><center><div><i><font size='4'>24% of the werners are hurmer.</font></i></div></center><h2>It is not the case that all of the werners are hurmer.</h2></body>,True,NULL,2960
1572967615,207795ac3ebcea6d1cc1d5f0f9b50930,Question2,12,0,Test-More-than-half-10-werner-hurmer,NULL,<head><style>div {background-color: #dbd9d9; width: 300px; border: 7px solid #3FB8AF; padding: 20px; margin: 20px;}</style></head><body><center><div><i><font size='4'>10% of the werners are hurmer.</font></i></div></center><h2>More than half of the werners are hurmer.</h2></body>,False,NULL,1381
1572967615,207795ac3ebcea6d1cc1d5f0f9b50930,Question2,150,0,Test-All-Neg-88-ingell-nalill,NULL,<head><style>div {background-color: #dbd9d9; width: 300px; border: 7px solid #3FB8AF; padding: 20px; margin: 20px;}</style></head><body><center><div><i><font size='4'>88% of the ingells are nalill.</font></i></div></center><h2>It is not the case that all of the ingells are nalill.</h2></body>,True,NULL,3884
1572967615,207795ac3ebcea6d1cc1d5f0f9b50930,Question2,84,0,Test-All-62-cather-funder,NULL,<head><style>div {background-color: #dbd9d9; width: 300px; border: 7px solid #3FB8AF; padding: 20px; margin: 20px;}</style></head><body><center><div><i><font size='4'>62% of the cathers are funder.</font></i></div></center><h2>All of the cathers are funder.</h2></body>,False,NULL,1238
1572967615,207795ac3ebcea6d1cc1d5f0f9b50930,Question2,140,0,Test-All-Neg-83-pirter-secent,NULL,<head><style>div {background-color: #dbd9d9; width: 300px; border: 7px solid #3FB8AF; padding: 20px; margin: 20px;}</style></head><body><center><div><i><font size='4'>83% of the pirters are secent.</font></i></div></center><h2>It is not the case that all of the pirters are secent.</h2></body>,True,NULL,1609
1572967615,207795ac3ebcea6d1cc1d5f0f9b50930,Question2,126,0,Test-All-Neg-44-monter-melelt,NULL,<head><style>div {background-color: #dbd9d9; width: 300px; border: 7px solid #3FB8AF; padding: 20px; margin: 20px;}</style></head><body><center><div><i><font size='4'>44% of the monters are melelt.</font></i></div></center><h2>It is not the case that all of the monters are melelt.</h2></body>,True,NULL,1502
1572967615,207795ac3ebcea6d1cc1d5f0f9b50930,Question2,89,0,Test-Some-62-pliper-sesare,NULL,<head><style>div {background-color: #dbd9d9; width: 300px; border: 7px solid #3FB8AF; padding: 20px; margin: 20px;}</style></head><body><center><div><i><font size='4'>62% of the plipers are sesare.</font></i></div></center><h2>Some of the plipers are sesare.</h2></body>,True,NULL,2006
1572967615,207795ac3ebcea6d1cc1d5f0f9b50930,Question2,73,0,Test-Some-48-hadder-ollidy,NULL,<head><style>div {background-color: #dbd9d9; width: 300px; border: 7px solid #3FB8AF; padding: 20px; margin: 20px;}</style></head><body><center><div><i><font size='4'>48% of the hadders are ollidy.</font></i></div></center><h2>Some of the hadders are ollidy.</h2></body>,True,NULL,1638
1572967615,207795ac3ebcea6d1cc1d5f0f9b50930,Question2,91,0,Test-Some-90-sporer-firtly,NULL,<head><style>div {background-color: #dbd9d9; width: 300px; border: 7px solid #3FB8AF; padding: 20px; margin: 20px;}</style></head><body><center><div><i><font size='4'>90% of the sporers are firtly.</font></i></div></center><h2>Some of the sporers are firtly.</h2></body>,True,NULL,1476
1572967615,207795ac3ebcea6d1cc1d5f0f9b50930,Question2,80,0,Test-All-68-strant-potind,NULL,<head><style>div {background-color: #dbd9d9; width: 300px; border: 7px solid #3FB8AF; padding: 20px; margin: 20px;}</style></head><body><center><div><i><font size='4'>68% of the strants are potind.</font></i></div></center><h2>All of the strants are potind.</h2></body>,False,NULL,1303
1572967615,207795ac3ebcea6d1cc1d5f0f9b50930,Question2,74,0,Test-All-46-hadder-ollidy,NULL,<head><style>div {background-color: #dbd9d9; width: 300px; border: 7px solid #3FB8AF; padding: 20px; margin: 20px;}</style></head><body><center><div><i><font size='4'>46% of the hadders are ollidy.</font></i></div></center><h2>All of the hadders are ollidy.</h2></body>,False,NULL,1029
1572967615,207795ac3ebcea6d1cc1d5f0f9b50930,Question2,83,0,Test-Some-71-cather-funder,NULL,<head><style>div {background-color: #dbd9d9; width: 300px; border: 7px solid #3FB8AF; padding: 20px; margin: 20px;}</style></head><body><center><div><i><font size='4'>71% of the cathers are funder.</font></i></div></center><h2>Some of the cathers are funder.</h2></body>,True,NULL,1334
1572967615,207795ac3ebcea6d1cc1d5f0f9b50930,Question2,27,0,Test-More-than-half-34-fleeve-scalfs,NULL,<head><style>div {background-color: #dbd9d9; width: 300px; border: 7px solid #3FB8AF; padding: 20px; margin: 20px;}</style></head><body><center><div><i><font size='4'>34% of the fleeves are scalfs.</font></i></div></center><h2>More than half of the fleeves are scalfs.</h2></body>,False,NULL,2606
1572967615,207795ac3ebcea6d1cc1d5f0f9b50930,Question2,142,0,Test-All-Neg-89-padnet-fanely,NULL,<head><style>div {background-color: #dbd9d9; width: 300px; border: 7px solid #3FB8AF; padding: 20px; margin: 20px;}</style></head><body><center><div><i><font size='4'>89% of the padnets are fanely.</font></i></div></center><h2>It is not the case that all of the padnets are fanely.</h2></body>,True,NULL,2204
1572967615,207795ac3ebcea6d1cc1d5f0f9b50930,Question2,22,0,Test-More-than-half-37-middor-drooty,NULL,<head><style>div {background-color: #dbd9d9; width: 300px; border: 7px solid #3FB8AF; padding: 20px; margin: 20px;}</style></head><body><center><div><i><font size='4'>37% of the middors are drooty.</font></i></div></center><h2>More than half of the middors are drooty.</h2></body>,False,NULL,1727
1572967615,207795ac3ebcea6d1cc1d5f0f9b50930,Question2,81,0,Test-Some-59-umpond-marire,NULL,<head><style>div {background-color: #dbd9d9; width: 300px; border: 7px solid #3FB8AF; padding: 20px; margin: 20px;}</style></head><body><center><div><i><font size='4'>59% of the umponds are marire.</font></i></div></center><h2>Some of the umponds are marire.</h2></body>,True,NULL,1511
1572967615,207795ac3ebcea6d1cc1d5f0f9b50930,Question2,92,0,Test-All-97-sporer-firtly,NULL,<head><style>div {background-color: #dbd9d9; width: 300px; border: 7px solid #3FB8AF; padding: 20px; margin: 20px;}</style></head><body><center><div><i><font size='4'>97% of the sporers are firtly.</font></i></div></center><h2>All of the sporers are firtly.</h2></body>,False,NULL,1484
1572967615,207795ac3ebcea6d1cc1d5f0f9b50930,Question2,131,0,Test-Some-Neg-64-tecker-biller,NULL,<head><style>div {background-color: #dbd9d9; width: 300px; border: 7px solid #3FB8AF; padding: 20px; margin: 20px;}</style></head><body><center><div><i><font size='4'>64% of the teckers are biller.</font></i></div></center><h2>It is not the case that some of the teckers are biller.</h2></body>,False,NULL,3253
1572967615,207795ac3ebcea6d1cc1d5f0f9b50930,Question2,98,0,Test-All-81-jallem-sildal,NULL,<head><style>div {background-color: #dbd9d9; width: 300px; border: 7px solid #3FB8AF; padding: 20px; margin: 20px;}</style></head><body><center><div><i><font size='4'>81% of the jallems are sildal.</font></i></div></center><h2>All of the jallems are sildal.</h2></body>,False,NULL,1158
1572967615,207795ac3ebcea6d1cc1d5f0f9b50930,Question2,128,0,Test-All-Neg-51-pluset-stubad,NULL,<head><style>div {background-color: #dbd9d9; width: 300px; border: 7px solid #3FB8AF; padding: 20px; margin: 20px;}</style></head><body><center><div><i><font size='4'>51% of the plusets are stubad.</font></i></div></center><h2>It is not the case that all of the plusets are stubad.</h2></body>,True,NULL,2366
1572967615,207795ac3ebcea6d1cc1d5f0f9b50930,Question2,136,0,Test-All-Neg-59-bamet-unzast,NULL,<head><style>div {background-color: #dbd9d9; width: 300px; border: 7px solid #3FB8AF; padding: 20px; margin: 20px;}</style></head><body><center><div><i><font size='4'>59% of the bamets are unzast.</font></i></div></center><h2>It is not the case that all of the bamets are unzast.</h2></body>,True,NULL,1406
1572967615,207795ac3ebcea6d1cc1d5f0f9b50930,Question2,141,0,Test-Some-Neg-82-padnet-fanely,NULL,<head><style>div {background-color: #dbd9d9; width: 300px; border: 7px solid #3FB8AF; padding: 20px; margin: 20px;}</style></head><body><center><div><i><font size='4'>82% of the padnets are fanely.</font></i></div></center><h2>It is not the case that some of the padnets are fanely.</h2></body>,False,NULL,2160
