# Results on Tuesday November 05 2019 13:05:33 UTC.
# USER AGENT: Mozilla/5.0 (Macintosh; Intel Mac OS X 10_14_6) AppleWebKit/605.1.15 (KHTML, like Gecko) Version/12.1.2 Safari/605.1.15
# Design number was non-random = 1
#
# Columns below this comment are as follows:
# 1. Time results were received.
# 2. MD5 hash of participant's IP address.
# 3. Controller name.
# 4. Item number.
# 5. Element number.
# 6. Type.
# 7. Group.
# 8. Field name.
# 9. Field value.
1572959134,07cc01221a03472cf291fa5e5ff1bfea,NewForm,0,0,agreement,NULL,,yes
1572959134,07cc01221a03472cf291fa5e5ff1bfea,NewForm,0,0,agreement,NULL,_REACTION_TIME_,7724
1572959134,07cc01221a03472cf291fa5e5ff1bfea,NewForm,1,0,instructions1,NULL,,yes
1572959134,07cc01221a03472cf291fa5e5ff1bfea,NewForm,1,0,instructions1,NULL,_REACTION_TIME_,9182
# Columns below this comment are as follows:
# 1. Time results were received.
# 2. MD5 hash of participant's IP address.
# 3. Controller name.
# 4. Item number.
# 5. Element number.
# 6. Type.
# 7. Group.
# 8. Question (NULL if none).
# 9. Answer.
# 10. Whether or not answer was correct (NULL if N/A).
# 11. Time taken to answer.
1572959134,07cc01221a03472cf291fa5e5ff1bfea,Question2,5,0,practice-some,NULL,<head><style>div {background-color: #dbd9d9; width: 300px; border: 7px solid #3FB8AF; padding: 20px; margin: 20px;}</style></head><body><center><div><i><font size='4'> 20% of the glerbs are fizda.</font></i></div></center><h2>Some of the glerbs are fizda.</h2></body>,True,NULL,3113
1572959134,07cc01221a03472cf291fa5e5ff1bfea,Question2,6,0,practice-all,NULL,<head><style>div {background-color: #dbd9d9; width: 300px; border: 7px solid #3FB8AF; padding: 20px; margin: 20px;}</style></head><body><center><div><i><font size='4'> 82% of the thonks are crangly.</font></i></div></center><h2>All of the thonks are crangly.</h2></body>,False,NULL,1538
1572959134,07cc01221a03472cf291fa5e5ff1bfea,Question2,107,0,Test-Some-Neg-24-werner-hurmer,NULL,<head><style>div {background-color: #dbd9d9; width: 300px; border: 7px solid #3FB8AF; padding: 20px; margin: 20px;}</style></head><body><center><div><i><font size='4'>24% of the werners are hurmer.</font></i></div></center><h2>It is not the case that some of the werners are hurmer.</h2></body>,True,NULL,6129
1572959134,07cc01221a03472cf291fa5e5ff1bfea,Question2,16,0,Test-Most-4-schook-jabant,NULL,<head><style>div {background-color: #dbd9d9; width: 300px; border: 7px solid #3FB8AF; padding: 20px; margin: 20px;}</style></head><body><center><div><i><font size='4'>4% of the schooks are jabant.</font></i></div></center><h2>It is not the case that most of the schooks are jabant.</h2></body>,False,NULL,9268
1572959134,07cc01221a03472cf291fa5e5ff1bfea,Question2,136,0,Test-All-Neg-59-bamet-unzast,NULL,<head><style>div {background-color: #dbd9d9; width: 300px; border: 7px solid #3FB8AF; padding: 20px; margin: 20px;}</style></head><body><center><div><i><font size='4'>59% of the bamets are unzast.</font></i></div></center><h2>It is not the case that all of the bamets are unzast.</h2></body>,True,NULL,7468
1572959134,07cc01221a03472cf291fa5e5ff1bfea,Question2,56,0,Test-All-17-kustle-reshix,NULL,<head><style>div {background-color: #dbd9d9; width: 300px; border: 7px solid #3FB8AF; padding: 20px; margin: 20px;}</style></head><body><center><div><i><font size='4'>17% of the kustles are reshix.</font></i></div></center><h2>All of the kustles are reshix.</h2></body>,False,NULL,2934
1572959134,07cc01221a03472cf291fa5e5ff1bfea,Question2,72,0,Test-All-40-ancit-smeath,NULL,<head><style>div {background-color: #dbd9d9; width: 300px; border: 7px solid #3FB8AF; padding: 20px; margin: 20px;}</style></head><body><center><div><i><font size='4'>40% of the ancits are smeath.</font></i></div></center><h2>All of the ancits are smeath.</h2></body>,False,NULL,3542
1572959134,07cc01221a03472cf291fa5e5ff1bfea,Question2,96,0,Test-All-77-boddle-molill,NULL,<head><style>div {background-color: #dbd9d9; width: 300px; border: 7px solid #3FB8AF; padding: 20px; margin: 20px;}</style></head><body><center><div><i><font size='4'>77% of the boddles are molill.</font></i></div></center><h2>All of the boddles are molill.</h2></body>,False,NULL,7558
1572959134,07cc01221a03472cf291fa5e5ff1bfea,Question2,133,0,Test-Some-Neg-70-raster-movell,NULL,<head><style>div {background-color: #dbd9d9; width: 300px; border: 7px solid #3FB8AF; padding: 20px; margin: 20px;}</style></head><body><center><div><i><font size='4'>70% of the rasters are movell.</font></i></div></center><h2>It is not the case that some of the rasters are movell.</h2></body>,True,NULL,3407
1572959134,07cc01221a03472cf291fa5e5ff1bfea,Question2,119,0,Test-Some-Neg-37-pengyl-sedest,NULL,<head><style>div {background-color: #dbd9d9; width: 300px; border: 7px solid #3FB8AF; padding: 20px; margin: 20px;}</style></head><body><center><div><i><font size='4'>37% of the pengyls are sedest.</font></i></div></center><h2>It is not the case that some of the pengyls are sedest.</h2></body>,False,NULL,6839
1572959134,07cc01221a03472cf291fa5e5ff1bfea,Question2,124,0,Test-All-Neg-37-tiklet-hullaw,NULL,<head><style>div {background-color: #dbd9d9; width: 300px; border: 7px solid #3FB8AF; padding: 20px; margin: 20px;}</style></head><body><center><div><i><font size='4'>37% of the tiklets are hullaw.</font></i></div></center><h2>It is not the case that all of the tiklets are hullaw.</h2></body>,True,NULL,3430
1572959134,07cc01221a03472cf291fa5e5ff1bfea,Question2,73,0,Test-Some-48-hadder-ollidy,NULL,<head><style>div {background-color: #dbd9d9; width: 300px; border: 7px solid #3FB8AF; padding: 20px; margin: 20px;}</style></head><body><center><div><i><font size='4'>48% of the hadders are ollidy.</font></i></div></center><h2>Some of the hadders are ollidy.</h2></body>,True,NULL,4982
1572959134,07cc01221a03472cf291fa5e5ff1bfea,Question2,144,0,Test-All-Neg-84-devole-sholly,NULL,<head><style>div {background-color: #dbd9d9; width: 300px; border: 7px solid #3FB8AF; padding: 20px; margin: 20px;}</style></head><body><center><div><i><font size='4'>84% of the devoles are sholly.</font></i></div></center><h2>It is not the case that all of the devoles are sholly.</h2></body>,True,NULL,4498
1572959134,07cc01221a03472cf291fa5e5ff1bfea,Question2,90,0,Test-All-70-pliper-sesare,NULL,<head><style>div {background-color: #dbd9d9; width: 300px; border: 7px solid #3FB8AF; padding: 20px; margin: 20px;}</style></head><body><center><div><i><font size='4'>70% of the plipers are sesare.</font></i></div></center><h2>All of the plipers are sesare.</h2></body>,False,NULL,2788
1572959134,07cc01221a03472cf291fa5e5ff1bfea,Question2,93,0,Test-Some-92-pobbit-spippy,NULL,<head><style>div {background-color: #dbd9d9; width: 300px; border: 7px solid #3FB8AF; padding: 20px; margin: 20px;}</style></head><body><center><div><i><font size='4'>92% of the pobbits are spippy.</font></i></div></center><h2>Some of the pobbits are spippy.</h2></body>,True,NULL,4196
1572959134,07cc01221a03472cf291fa5e5ff1bfea,Question2,117,0,Test-Some-Neg-40-middor-drooty,NULL,<head><style>div {background-color: #dbd9d9; width: 300px; border: 7px solid #3FB8AF; padding: 20px; margin: 20px;}</style></head><body><center><div><i><font size='4'>40% of the middors are drooty.</font></i></div></center><h2>It is not the case that some of the middors are drooty.</h2></body>,True,NULL,3722
1572959134,07cc01221a03472cf291fa5e5ff1bfea,Question2,19,0,Test-Most-26-cosut-spover,NULL,<head><style>div {background-color: #dbd9d9; width: 300px; border: 7px solid #3FB8AF; padding: 20px; margin: 20px;}</style></head><body><center><div><i><font size='4'>26% of the cosuts are spover.</font></i></div></center><h2>It is not the case that most of the cosuts are spover.</h2></body>,True,NULL,9167
1572959134,07cc01221a03472cf291fa5e5ff1bfea,Question2,83,0,Test-Some-71-cather-funder,NULL,<head><style>div {background-color: #dbd9d9; width: 300px; border: 7px solid #3FB8AF; padding: 20px; margin: 20px;}</style></head><body><center><div><i><font size='4'>71% of the cathers are funder.</font></i></div></center><h2>Some of the cathers are funder.</h2></body>,True,NULL,4329
1572959134,07cc01221a03472cf291fa5e5ff1bfea,Question2,34,0,Test-Most-61-russer-huttle,NULL,<head><style>div {background-color: #dbd9d9; width: 300px; border: 7px solid #3FB8AF; padding: 20px; margin: 20px;}</style></head><body><center><div><i><font size='4'>61% of the russers are huttle.</font></i></div></center><h2>It is not the case that most of the russers are huttle.</h2></body>,False,NULL,9403
1572959134,07cc01221a03472cf291fa5e5ff1bfea,Question2,14,0,Test-Most-7-gukbar-soarse,NULL,<head><style>div {background-color: #dbd9d9; width: 300px; border: 7px solid #3FB8AF; padding: 20px; margin: 20px;}</style></head><body><center><div><i><font size='4'>7% of the gukbars are soarse.</font></i></div></center><h2>It is not the case that most of the gukbars are soarse.</h2></body>,True,NULL,5297
1572959134,07cc01221a03472cf291fa5e5ff1bfea,Question2,131,0,Test-Some-Neg-64-tecker-biller,NULL,<head><style>div {background-color: #dbd9d9; width: 300px; border: 7px solid #3FB8AF; padding: 20px; margin: 20px;}</style></head><body><center><div><i><font size='4'>64% of the teckers are biller.</font></i></div></center><h2>It is not the case that some of the teckers are biller.</h2></body>,False,NULL,8443
1572959134,07cc01221a03472cf291fa5e5ff1bfea,Question2,52,0,Test-Most-85-chevel-podden,NULL,<head><style>div {background-color: #dbd9d9; width: 300px; border: 7px solid #3FB8AF; padding: 20px; margin: 20px;}</style></head><body><center><div><i><font size='4'>85% of the chevels are podden.</font></i></div></center><h2>It is not the case that most of the chevels are podden.</h2></body>,True,NULL,6546
1572959134,07cc01221a03472cf291fa5e5ff1bfea,Question2,15,0,Test-Most-17-clidge-hensly,NULL,<head><style>div {background-color: #dbd9d9; width: 300px; border: 7px solid #3FB8AF; padding: 20px; margin: 20px;}</style></head><body><center><div><i><font size='4'>17% of the clidges are hensly.</font></i></div></center><h2>It is not the case that most of the clidges are hensly.</h2></body>,True,NULL,7547
1572959134,07cc01221a03472cf291fa5e5ff1bfea,Question2,23,0,Test-Most-46-ancit-smeath,NULL,<head><style>div {background-color: #dbd9d9; width: 300px; border: 7px solid #3FB8AF; padding: 20px; margin: 20px;}</style></head><body><center><div><i><font size='4'>46% of the ancits are smeath.</font></i></div></center><h2>It is not the case that most of the ancits are smeath.</h2></body>,False,NULL,8414
1572959134,07cc01221a03472cf291fa5e5ff1bfea,Question2,25,0,Test-Most-42-hadder-ollidy,NULL,<head><style>div {background-color: #dbd9d9; width: 300px; border: 7px solid #3FB8AF; padding: 20px; margin: 20px;}</style></head><body><center><div><i><font size='4'>42% of the hadders are ollidy.</font></i></div></center><h2>It is not the case that most of the hadders are ollidy.</h2></body>,True,NULL,11283
1572959134,07cc01221a03472cf291fa5e5ff1bfea,Question2,76,0,Test-All-30-fleeve-scalfs,NULL,<head><style>div {background-color: #dbd9d9; width: 300px; border: 7px solid #3FB8AF; padding: 20px; margin: 20px;}</style></head><body><center><div><i><font size='4'>30% of the fleeves are scalfs.</font></i></div></center><h2>All of the fleeves are scalfs.</h2></body>,False,NULL,2203
1572959134,07cc01221a03472cf291fa5e5ff1bfea,Question2,37,0,Test-Most-55-birler-enciad,NULL,<head><style>div {background-color: #dbd9d9; width: 300px; border: 7px solid #3FB8AF; padding: 20px; margin: 20px;}</style></head><body><center><div><i><font size='4'>55% of the birlers are enciad.</font></i></div></center><h2>It is not the case that most of the birlers are enciad.</h2></body>,False,NULL,5129
1572959134,07cc01221a03472cf291fa5e5ff1bfea,Question2,64,0,Test-All-6-clidge-hensly,NULL,<head><style>div {background-color: #dbd9d9; width: 300px; border: 7px solid #3FB8AF; padding: 20px; margin: 20px;}</style></head><body><center><div><i><font size='4'>6% of the clidges are hensly.</font></i></div></center><h2>All of the clidges are hensly.</h2></body>,False,NULL,2541
1572959134,07cc01221a03472cf291fa5e5ff1bfea,Question2,141,0,Test-Some-Neg-82-padnet-fanely,NULL,<head><style>div {background-color: #dbd9d9; width: 300px; border: 7px solid #3FB8AF; padding: 20px; margin: 20px;}</style></head><body><center><div><i><font size='4'>82% of the padnets are fanely.</font></i></div></center><h2>It is not the case that some of the padnets are fanely.</h2></body>,False,NULL,9077
1572959134,07cc01221a03472cf291fa5e5ff1bfea,Question2,75,0,Test-Some-44-fleeve-scalfs,NULL,<head><style>div {background-color: #dbd9d9; width: 300px; border: 7px solid #3FB8AF; padding: 20px; margin: 20px;}</style></head><body><center><div><i><font size='4'>44% of the fleeves are scalfs.</font></i></div></center><h2>Some of the fleeves are scalfs.</h2></body>,True,NULL,2057
1572959134,07cc01221a03472cf291fa5e5ff1bfea,Question2,132,0,Test-All-Neg-55-tecker-biller,NULL,<head><style>div {background-color: #dbd9d9; width: 300px; border: 7px solid #3FB8AF; padding: 20px; margin: 20px;}</style></head><body><center><div><i><font size='4'>55% of the teckers are biller.</font></i></div></center><h2>It is not the case that all of the teckers are biller.</h2></body>,True,NULL,7536
1572959134,07cc01221a03472cf291fa5e5ff1bfea,Question2,122,0,Test-All-Neg-28-zetten-unfobs,NULL,<head><style>div {background-color: #dbd9d9; width: 300px; border: 7px solid #3FB8AF; padding: 20px; margin: 20px;}</style></head><body><center><div><i><font size='4'>28% of the zettens are unfobs.</font></i></div></center><h2>It is not the case that all of the zettens are unfobs.</h2></body>,True,NULL,12959
1572959134,07cc01221a03472cf291fa5e5ff1bfea,Question2,138,0,Test-All-Neg-67-coppar-hunene,NULL,<head><style>div {background-color: #dbd9d9; width: 300px; border: 7px solid #3FB8AF; padding: 20px; margin: 20px;}</style></head><body><center><div><i><font size='4'>67% of the coppars are hunene.</font></i></div></center><h2>It is not the case that all of the coppars are hunene.</h2></body>,True,NULL,6175
1572959134,07cc01221a03472cf291fa5e5ff1bfea,Question2,24,0,Test-Most-30-pengyl-sedest,NULL,<head><style>div {background-color: #dbd9d9; width: 300px; border: 7px solid #3FB8AF; padding: 20px; margin: 20px;}</style></head><body><center><div><i><font size='4'>30% of the pengyls are sedest.</font></i></div></center><h2>It is not the case that most of the pengyls are sedest.</h2></body>,True,NULL,1899
1572959134,07cc01221a03472cf291fa5e5ff1bfea,Question2,26,0,Test-Most-41-zetten-unfobs,NULL,<head><style>div {background-color: #dbd9d9; width: 300px; border: 7px solid #3FB8AF; padding: 20px; margin: 20px;}</style></head><body><center><div><i><font size='4'>41% of the zettens are unfobs.</font></i></div></center><h2>It is not the case that most of the zettens are unfobs.</h2></body>,False,NULL,1483
1572959134,07cc01221a03472cf291fa5e5ff1bfea,Question2,150,0,Test-All-Neg-88-ingell-nalill,NULL,<head><style>div {background-color: #dbd9d9; width: 300px; border: 7px solid #3FB8AF; padding: 20px; margin: 20px;}</style></head><body><center><div><i><font size='4'>88% of the ingells are nalill.</font></i></div></center><h2>It is not the case that all of the ingells are nalill.</h2></body>,True,NULL,6557
1572959134,07cc01221a03472cf291fa5e5ff1bfea,Question2,55,0,Test-Some-19-kustle-reshix,NULL,<head><style>div {background-color: #dbd9d9; width: 300px; border: 7px solid #3FB8AF; padding: 20px; margin: 20px;}</style></head><body><center><div><i><font size='4'>19% of the kustles are reshix.</font></i></div></center><h2>Some of the kustles are reshix.</h2></body>,True,NULL,1855
1572959134,07cc01221a03472cf291fa5e5ff1bfea,Question2,18,0,Test-Most-9-shrile-athoid,NULL,<head><style>div {background-color: #dbd9d9; width: 300px; border: 7px solid #3FB8AF; padding: 20px; margin: 20px;}</style></head><body><center><div><i><font size='4'>9% of the shriles are athoid.</font></i></div></center><h2>It is not the case that most of the shriles are athoid.</h2></body>,True,NULL,2282
1572959134,07cc01221a03472cf291fa5e5ff1bfea,Question2,9,0,Test-Most-12-puggle-entand,NULL,<head><style>div {background-color: #dbd9d9; width: 300px; border: 7px solid #3FB8AF; padding: 20px; margin: 20px;}</style></head><body><center><div><i><font size='4'>12% of the puggles are entand.</font></i></div></center><h2>It is not the case that most of the puggles are entand.</h2></body>,True,NULL,2665
1572959134,07cc01221a03472cf291fa5e5ff1bfea,Question2,62,0,Test-All-19-mecket-plumry,NULL,<head><style>div {background-color: #dbd9d9; width: 300px; border: 7px solid #3FB8AF; padding: 20px; margin: 20px;}</style></head><body><center><div><i><font size='4'>19% of the meckets are plumry.</font></i></div></center><h2>All of the meckets are plumry.</h2></body>,False,NULL,2485
1572959134,07cc01221a03472cf291fa5e5ff1bfea,Question2,8,0,Test-Most-13-beckel-racual,NULL,<head><style>div {background-color: #dbd9d9; width: 300px; border: 7px solid #3FB8AF; padding: 20px; margin: 20px;}</style></head><body><center><div><i><font size='4'>13% of the beckels are racual.</font></i></div></center><h2>It is not the case that most of the beckels are racual.</h2></body>,False,NULL,3970
1572959134,07cc01221a03472cf291fa5e5ff1bfea,Question2,113,0,Test-Some-Neg-12-shrile-athoid,NULL,<head><style>div {background-color: #dbd9d9; width: 300px; border: 7px solid #3FB8AF; padding: 20px; margin: 20px;}</style></head><body><center><div><i><font size='4'>12% of the shriles are athoid.</font></i></div></center><h2>It is not the case that some of the shriles are athoid.</h2></body>,True,NULL,4206
1572959134,07cc01221a03472cf291fa5e5ff1bfea,Question2,59,0,Test-Some-4-chulk-vulhor,NULL,<head><style>div {background-color: #dbd9d9; width: 300px; border: 7px solid #3FB8AF; padding: 20px; margin: 20px;}</style></head><body><center><div><i><font size='4'>4% of the chulks are vulhor.</font></i></div></center><h2>Some of the chulks are vulhor.</h2></body>,True,NULL,2969
1572959134,07cc01221a03472cf291fa5e5ff1bfea,Question2,35,0,Test-Most-67-cather-funder,NULL,<head><style>div {background-color: #dbd9d9; width: 300px; border: 7px solid #3FB8AF; padding: 20px; margin: 20px;}</style></head><body><center><div><i><font size='4'>67% of the cathers are funder.</font></i></div></center><h2>It is not the case that most of the cathers are funder.</h2></body>,False,NULL,3801
1572959134,07cc01221a03472cf291fa5e5ff1bfea,Question2,36,0,Test-Most-65-tecker-biller,NULL,<head><style>div {background-color: #dbd9d9; width: 300px; border: 7px solid #3FB8AF; padding: 20px; margin: 20px;}</style></head><body><center><div><i><font size='4'>65% of the teckers are biller.</font></i></div></center><h2>It is not the case that most of the teckers are biller.</h2></body>,False,NULL,3148
1572959134,07cc01221a03472cf291fa5e5ff1bfea,Question2,99,0,Test-Some-100-puctor-recure,NULL,<head><style>div {background-color: #dbd9d9; width: 300px; border: 7px solid #3FB8AF; padding: 20px; margin: 20px;}</style></head><body><center><div><i><font size='4'>100% of the puctors are recure.</font></i></div></center><h2>Some of the puctors are recure.</h2></body>,True,NULL,3519
1572959134,07cc01221a03472cf291fa5e5ff1bfea,Question2,116,0,Test-All-Neg-29-coamin-mucond,NULL,<head><style>div {background-color: #dbd9d9; width: 300px; border: 7px solid #3FB8AF; padding: 20px; margin: 20px;}</style></head><body><center><div><i><font size='4'>29% of the coamins are mucond.</font></i></div></center><h2>It is not the case that all of the coamins are mucond.</h2></body>,False,NULL,18944
1572959134,07cc01221a03472cf291fa5e5ff1bfea,Question2,82,0,Test-All-52-umpond-marire,NULL,<head><style>div {background-color: #dbd9d9; width: 300px; border: 7px solid #3FB8AF; padding: 20px; margin: 20px;}</style></head><body><center><div><i><font size='4'>52% of the umponds are marire.</font></i></div></center><h2>All of the umponds are marire.</h2></body>,False,NULL,1810
1572959134,07cc01221a03472cf291fa5e5ff1bfea,Question2,70,0,Test-All-39-shamer-bloif,NULL,<head><style>div {background-color: #dbd9d9; width: 300px; border: 7px solid #3FB8AF; padding: 20px; margin: 20px;}</style></head><body><center><div><i><font size='4'>39% of the shamers are bloif.</font></i></div></center><h2>All of the shamers are bloif.</h2></body>,True,NULL,4003
1572959134,07cc01221a03472cf291fa5e5ff1bfea,Question2,46,0,Test-Most-81-padnet-fanely,NULL,<head><style>div {background-color: #dbd9d9; width: 300px; border: 7px solid #3FB8AF; padding: 20px; margin: 20px;}</style></head><body><center><div><i><font size='4'>81% of the padnets are fanely.</font></i></div></center><h2>It is not the case that most of the padnets are fanely.</h2></body>,False,NULL,2823
1572959134,07cc01221a03472cf291fa5e5ff1bfea,Question2,105,0,Test-Some-Neg-18-chadop-shaple,NULL,<head><style>div {background-color: #dbd9d9; width: 300px; border: 7px solid #3FB8AF; padding: 20px; margin: 20px;}</style></head><body><center><div><i><font size='4'>18% of the chadops are shaple.</font></i></div></center><h2>It is not the case that some of the chadops are shaple.</h2></body>,False,NULL,1595
1572959134,07cc01221a03472cf291fa5e5ff1bfea,Question2,111,0,Test-Some-Neg-1-schook-jabant,NULL,<head><style>div {background-color: #dbd9d9; width: 300px; border: 7px solid #3FB8AF; padding: 20px; margin: 20px;}</style></head><body><center><div><i><font size='4'>1% of the schooks are jabant.</font></i></div></center><h2>It is not the case that some of the schooks are jabant.</h2></body>,False,NULL,1270
1572959134,07cc01221a03472cf291fa5e5ff1bfea,Question2,39,0,Test-Most-66-menner-nandow,NULL,<head><style>div {background-color: #dbd9d9; width: 300px; border: 7px solid #3FB8AF; padding: 20px; margin: 20px;}</style></head><body><center><div><i><font size='4'>66% of the menners are nandow.</font></i></div></center><h2>It is not the case that most of the menners are nandow.</h2></body>,True,NULL,3070
1572959134,07cc01221a03472cf291fa5e5ff1bfea,Question2,101,0,Test-Some-80-awplor-fasees,NULL,<head><style>div {background-color: #dbd9d9; width: 300px; border: 7px solid #3FB8AF; padding: 20px; margin: 20px;}</style></head><body><center><div><i><font size='4'>80% of the awplors are fasees.</font></i></div></center><h2>Some of the awplors are fasees.</h2></body>,True,NULL,1719
1572959134,07cc01221a03472cf291fa5e5ff1bfea,Question2,31,0,Test-Most-70-strant-potind,NULL,<head><style>div {background-color: #dbd9d9; width: 300px; border: 7px solid #3FB8AF; padding: 20px; margin: 20px;}</style></head><body><center><div><i><font size='4'>70% of the strants are potind.</font></i></div></center><h2>It is not the case that most of the strants are potind.</h2></body>,False,NULL,1314
1572959134,07cc01221a03472cf291fa5e5ff1bfea,Question2,47,0,Test-Most-94-boddle-molill,NULL,<head><style>div {background-color: #dbd9d9; width: 300px; border: 7px solid #3FB8AF; padding: 20px; margin: 20px;}</style></head><body><center><div><i><font size='4'>94% of the boddles are molill.</font></i></div></center><h2>It is not the case that most of the boddles are molill.</h2></body>,False,NULL,1034
1572959134,07cc01221a03472cf291fa5e5ff1bfea,Question2,10,0,Test-Most-6-chadop-shaple,NULL,<head><style>div {background-color: #dbd9d9; width: 300px; border: 7px solid #3FB8AF; padding: 20px; margin: 20px;}</style></head><body><center><div><i><font size='4'>6% of the chadops are shaple.</font></i></div></center><h2>It is not the case that most of the chadops are shaple.</h2></body>,False,NULL,2620
1572959134,07cc01221a03472cf291fa5e5ff1bfea,Question2,71,0,Test-Some-32-ancit-smeath,NULL,<head><style>div {background-color: #dbd9d9; width: 300px; border: 7px solid #3FB8AF; padding: 20px; margin: 20px;}</style></head><body><center><div><i><font size='4'>32% of the ancits are smeath.</font></i></div></center><h2>Some of the ancits are smeath.</h2></body>,True,NULL,3801
1572959134,07cc01221a03472cf291fa5e5ff1bfea,Question2,60,0,Test-All-21-chulk-vulhor,NULL,<head><style>div {background-color: #dbd9d9; width: 300px; border: 7px solid #3FB8AF; padding: 20px; margin: 20px;}</style></head><body><center><div><i><font size='4'>21% of the chulks are vulhor.</font></i></div></center><h2>All of the chulks are vulhor.</h2></body>,False,NULL,2259
1572959134,07cc01221a03472cf291fa5e5ff1bfea,Question2,147,0,Test-Some-Neg-95-chevel-podden,NULL,<head><style>div {background-color: #dbd9d9; width: 300px; border: 7px solid #3FB8AF; padding: 20px; margin: 20px;}</style></head><body><center><div><i><font size='4'>95% of the chevels are podden.</font></i></div></center><h2>It is not the case that some of the chevels are podden.</h2></body>,False,NULL,10461
1572959134,07cc01221a03472cf291fa5e5ff1bfea,Question2,115,0,Test-Some-Neg-29-coamin-mucond,NULL,<head><style>div {background-color: #dbd9d9; width: 300px; border: 7px solid #3FB8AF; padding: 20px; margin: 20px;}</style></head><body><center><div><i><font size='4'>29% of the coamins are mucond.</font></i></div></center><h2>It is not the case that some of the coamins are mucond.</h2></body>,False,NULL,2248
1572959134,07cc01221a03472cf291fa5e5ff1bfea,Question2,127,0,Test-Some-Neg-51-pluset-stubad,NULL,<head><style>div {background-color: #dbd9d9; width: 300px; border: 7px solid #3FB8AF; padding: 20px; margin: 20px;}</style></head><body><center><div><i><font size='4'>51% of the plusets are stubad.</font></i></div></center><h2>It is not the case that some of the plusets are stubad.</h2></body>,False,NULL,1315
1572959134,07cc01221a03472cf291fa5e5ff1bfea,Question2,109,0,Test-Some-Neg-11-gukbar-soarse,NULL,<head><style>div {background-color: #dbd9d9; width: 300px; border: 7px solid #3FB8AF; padding: 20px; margin: 20px;}</style></head><body><center><div><i><font size='4'>11% of the gukbars are soarse.</font></i></div></center><h2>It is not the case that some of the gukbars are soarse.</h2></body>,False,NULL,1315
1572959134,07cc01221a03472cf291fa5e5ff1bfea,Question2,120,0,Test-All-Neg-33-pengyl-sedest,NULL,<head><style>div {background-color: #dbd9d9; width: 300px; border: 7px solid #3FB8AF; padding: 20px; margin: 20px;}</style></head><body><center><div><i><font size='4'>33% of the pengyls are sedest.</font></i></div></center><h2>It is not the case that all of the pengyls are sedest.</h2></body>,True,NULL,1394
1572959134,07cc01221a03472cf291fa5e5ff1bfea,Question2,49,0,Test-Most-88-jallem-sildal,NULL,<head><style>div {background-color: #dbd9d9; width: 300px; border: 7px solid #3FB8AF; padding: 20px; margin: 20px;}</style></head><body><center><div><i><font size='4'>88% of the jallems are sildal.</font></i></div></center><h2>It is not the case that most of the jallems are sildal.</h2></body>,True,NULL,1090
1572959134,07cc01221a03472cf291fa5e5ff1bfea,Question2,78,0,Test-All-49-shurrie-preser,NULL,<head><style>div {background-color: #dbd9d9; width: 300px; border: 7px solid #3FB8AF; padding: 20px; margin: 20px;}</style></head><body><center><div><i><font size='4'>49% of the shurries are preser.</font></i></div></center><h2>All of the shurries are preser.</h2></body>,False,NULL,1089
1572959134,07cc01221a03472cf291fa5e5ff1bfea,Question2,51,0,Test-Most-93-puctor-recure,NULL,<head><style>div {background-color: #dbd9d9; width: 300px; border: 7px solid #3FB8AF; padding: 20px; margin: 20px;}</style></head><body><center><div><i><font size='4'>93% of the puctors are recure.</font></i></div></center><h2>It is not the case that most of the puctors are recure.</h2></body>,True,NULL,1078
1572959134,07cc01221a03472cf291fa5e5ff1bfea,Question2,106,0,Test-All-Neg-9-chadop-shaple,NULL,<head><style>div {background-color: #dbd9d9; width: 300px; border: 7px solid #3FB8AF; padding: 20px; margin: 20px;}</style></head><body><center><div><i><font size='4'>9% of the chadops are shaple.</font></i></div></center><h2>It is not the case that all of the chadops are shaple.</h2></body>,True,NULL,1742
1572959134,07cc01221a03472cf291fa5e5ff1bfea,Question2,126,0,Test-All-Neg-44-monter-melelt,NULL,<head><style>div {background-color: #dbd9d9; width: 300px; border: 7px solid #3FB8AF; padding: 20px; margin: 20px;}</style></head><body><center><div><i><font size='4'>44% of the monters are melelt.</font></i></div></center><h2>It is not the case that all of the monters are melelt.</h2></body>,False,NULL,1044
1572959134,07cc01221a03472cf291fa5e5ff1bfea,Question2,110,0,Test-All-Neg-0-gukbar-soarse,NULL,<head><style>div {background-color: #dbd9d9; width: 300px; border: 7px solid #3FB8AF; padding: 20px; margin: 20px;}</style></head><body><center><div><i><font size='4'>0% of the gukbars are soarse.</font></i></div></center><h2>It is not the case that all of the gukbars are soarse.</h2></body>,False,NULL,3362
1572959134,07cc01221a03472cf291fa5e5ff1bfea,Question2,104,0,Test-All-Neg-11-beckel-racual,NULL,<head><style>div {background-color: #dbd9d9; width: 300px; border: 7px solid #3FB8AF; padding: 20px; margin: 20px;}</style></head><body><center><div><i><font size='4'>11% of the beckels are racual.</font></i></div></center><h2>It is not the case that all of the beckels are racual.</h2></body>,False,NULL,1933
1572959134,07cc01221a03472cf291fa5e5ff1bfea,Question2,80,0,Test-All-68-strant-potind,NULL,<head><style>div {background-color: #dbd9d9; width: 300px; border: 7px solid #3FB8AF; padding: 20px; margin: 20px;}</style></head><body><center><div><i><font size='4'>68% of the strants are potind.</font></i></div></center><h2>All of the strants are potind.</h2></body>,False,NULL,843
1572959134,07cc01221a03472cf291fa5e5ff1bfea,Question2,140,0,Test-All-Neg-83-pirter-secent,NULL,<head><style>div {background-color: #dbd9d9; width: 300px; border: 7px solid #3FB8AF; padding: 20px; margin: 20px;}</style></head><body><center><div><i><font size='4'>83% of the pirters are secent.</font></i></div></center><h2>It is not the case that all of the pirters are secent.</h2></body>,True,NULL,786
1572959134,07cc01221a03472cf291fa5e5ff1bfea,Question2,149,0,Test-Some-Neg-87-ingell-nalill,NULL,<head><style>div {background-color: #dbd9d9; width: 300px; border: 7px solid #3FB8AF; padding: 20px; margin: 20px;}</style></head><body><center><div><i><font size='4'>87% of the ingells are nalill.</font></i></div></center><h2>It is not the case that some of the ingells are nalill.</h2></body>,False,NULL,797
1572959134,07cc01221a03472cf291fa5e5ff1bfea,Question2,85,0,Test-Some-68-birler-enciad,NULL,<head><style>div {background-color: #dbd9d9; width: 300px; border: 7px solid #3FB8AF; padding: 20px; margin: 20px;}</style></head><body><center><div><i><font size='4'>68% of the birlers are enciad.</font></i></div></center><h2>Some of the birlers are enciad.</h2></body>,False,NULL,1011
1572959134,07cc01221a03472cf291fa5e5ff1bfea,Question2,89,0,Test-Some-62-pliper-sesare,NULL,<head><style>div {background-color: #dbd9d9; width: 300px; border: 7px solid #3FB8AF; padding: 20px; margin: 20px;}</style></head><body><center><div><i><font size='4'>62% of the plipers are sesare.</font></i></div></center><h2>Some of the plipers are sesare.</h2></body>,False,NULL,786
1572959134,07cc01221a03472cf291fa5e5ff1bfea,Question2,121,0,Test-Some-Neg-31-zetten-unfobs,NULL,<head><style>div {background-color: #dbd9d9; width: 300px; border: 7px solid #3FB8AF; padding: 20px; margin: 20px;}</style></head><body><center><div><i><font size='4'>31% of the zettens are unfobs.</font></i></div></center><h2>It is not the case that some of the zettens are unfobs.</h2></body>,True,NULL,831
1572959134,07cc01221a03472cf291fa5e5ff1bfea,Question2,20,0,Test-Most-29-coamin-mucond,NULL,<head><style>div {background-color: #dbd9d9; width: 300px; border: 7px solid #3FB8AF; padding: 20px; margin: 20px;}</style></head><body><center><div><i><font size='4'>29% of the coamins are mucond.</font></i></div></center><h2>It is not the case that most of the coamins are mucond.</h2></body>,True,NULL,1000
1572959134,07cc01221a03472cf291fa5e5ff1bfea,Question2,118,0,Test-All-Neg-38-middor-drooty,NULL,<head><style>div {background-color: #dbd9d9; width: 300px; border: 7px solid #3FB8AF; padding: 20px; margin: 20px;}</style></head><body><center><div><i><font size='4'>38% of the middors are drooty.</font></i></div></center><h2>It is not the case that all of the middors are drooty.</h2></body>,True,NULL,888
1572959134,07cc01221a03472cf291fa5e5ff1bfea,Question2,27,0,Test-Most-34-fleeve-scalfs,NULL,<head><style>div {background-color: #dbd9d9; width: 300px; border: 7px solid #3FB8AF; padding: 20px; margin: 20px;}</style></head><body><center><div><i><font size='4'>34% of the fleeves are scalfs.</font></i></div></center><h2>It is not the case that most of the fleeves are scalfs.</h2></body>,False,NULL,854
1572959134,07cc01221a03472cf291fa5e5ff1bfea,Question2,54,0,Test-Most-96-ingell-nalill,NULL,<head><style>div {background-color: #dbd9d9; width: 300px; border: 7px solid #3FB8AF; padding: 20px; margin: 20px;}</style></head><body><center><div><i><font size='4'>96% of the ingells are nalill.</font></i></div></center><h2>It is not the case that most of the ingells are nalill.</h2></body>,False,NULL,809
1572959134,07cc01221a03472cf291fa5e5ff1bfea,Question2,58,0,Test-All-16-puggle-entand,NULL,<head><style>div {background-color: #dbd9d9; width: 300px; border: 7px solid #3FB8AF; padding: 20px; margin: 20px;}</style></head><body><center><div><i><font size='4'>16% of the puggles are entand.</font></i></div></center><h2>All of the puggles are entand.</h2></body>,True,NULL,730
1572959134,07cc01221a03472cf291fa5e5ff1bfea,Question2,44,0,Test-Most-77-pirter-secent,NULL,<head><style>div {background-color: #dbd9d9; width: 300px; border: 7px solid #3FB8AF; padding: 20px; margin: 20px;}</style></head><body><center><div><i><font size='4'>77% of the pirters are secent.</font></i></div></center><h2>It is not the case that most of the pirters are secent.</h2></body>,False,NULL,764
1572959134,07cc01221a03472cf291fa5e5ff1bfea,Question2,22,0,Test-Most-37-middor-drooty,NULL,<head><style>div {background-color: #dbd9d9; width: 300px; border: 7px solid #3FB8AF; padding: 20px; margin: 20px;}</style></head><body><center><div><i><font size='4'>37% of the middors are drooty.</font></i></div></center><h2>It is not the case that most of the middors are drooty.</h2></body>,False,NULL,819
1572959134,07cc01221a03472cf291fa5e5ff1bfea,Question2,30,0,Test-Most-38-monter-melelt,NULL,<head><style>div {background-color: #dbd9d9; width: 300px; border: 7px solid #3FB8AF; padding: 20px; margin: 20px;}</style></head><body><center><div><i><font size='4'>38% of the monters are melelt.</font></i></div></center><h2>It is not the case that most of the monters are melelt.</h2></body>,False,NULL,786
1572959134,07cc01221a03472cf291fa5e5ff1bfea,Question2,97,0,Test-Some-76-jallem-sildal,NULL,<head><style>div {background-color: #dbd9d9; width: 300px; border: 7px solid #3FB8AF; padding: 20px; margin: 20px;}</style></head><body><center><div><i><font size='4'>76% of the jallems are sildal.</font></i></div></center><h2>Some of the jallems are sildal.</h2></body>,True,NULL,888
1572959134,07cc01221a03472cf291fa5e5ff1bfea,Question2,74,0,Test-All-46-hadder-ollidy,NULL,<head><style>div {background-color: #dbd9d9; width: 300px; border: 7px solid #3FB8AF; padding: 20px; margin: 20px;}</style></head><body><center><div><i><font size='4'>46% of the hadders are ollidy.</font></i></div></center><h2>All of the hadders are ollidy.</h2></body>,False,NULL,932
1572959134,07cc01221a03472cf291fa5e5ff1bfea,Question2,53,0,Test-Most-84-awplor-fasees,NULL,<head><style>div {background-color: #dbd9d9; width: 300px; border: 7px solid #3FB8AF; padding: 20px; margin: 20px;}</style></head><body><center><div><i><font size='4'>84% of the awplors are fasees.</font></i></div></center><h2>It is not the case that most of the awplors are fasees.</h2></body>,True,NULL,808
1572959134,07cc01221a03472cf291fa5e5ff1bfea,Question2,128,0,Test-All-Neg-51-pluset-stubad,NULL,<head><style>div {background-color: #dbd9d9; width: 300px; border: 7px solid #3FB8AF; padding: 20px; margin: 20px;}</style></head><body><center><div><i><font size='4'>51% of the plusets are stubad.</font></i></div></center><h2>It is not the case that all of the plusets are stubad.</h2></body>,False,NULL,820
1572959134,07cc01221a03472cf291fa5e5ff1bfea,Question2,92,0,Test-All-97-sporer-firtly,NULL,<head><style>div {background-color: #dbd9d9; width: 300px; border: 7px solid #3FB8AF; padding: 20px; margin: 20px;}</style></head><body><center><div><i><font size='4'>97% of the sporers are firtly.</font></i></div></center><h2>All of the sporers are firtly.</h2></body>,False,NULL,7458
1572959134,07cc01221a03472cf291fa5e5ff1bfea,Question2,69,0,Test-Some-30-shamer-bloif,NULL,<head><style>div {background-color: #dbd9d9; width: 300px; border: 7px solid #3FB8AF; padding: 20px; margin: 20px;}</style></head><body><center><div><i><font size='4'>30% of the shamers are bloif.</font></i></div></center><h2>Some of the shamers are bloif.</h2></body>,True,NULL,3351
1572959134,07cc01221a03472cf291fa5e5ff1bfea,Question2,42,0,Test-Most-73-coppar-hunene,NULL,<head><style>div {background-color: #dbd9d9; width: 300px; border: 7px solid #3FB8AF; padding: 20px; margin: 20px;}</style></head><body><center><div><i><font size='4'>73% of the coppars are hunene.</font></i></div></center><h2>It is not the case that most of the coppars are hunene.</h2></body>,True,NULL,5771
1572959134,07cc01221a03472cf291fa5e5ff1bfea,Question2,11,0,Test-Most-18-chulk-vulhor,NULL,<head><style>div {background-color: #dbd9d9; width: 300px; border: 7px solid #3FB8AF; padding: 20px; margin: 20px;}</style></head><body><center><div><i><font size='4'>18% of the chulks are vulhor.</font></i></div></center><h2>It is not the case that most of the chulks are vulhor.</h2></body>,False,NULL,1045
1572959134,07cc01221a03472cf291fa5e5ff1bfea,Question2,21,0,Test-Most-28-shamer-bloif,NULL,<head><style>div {background-color: #dbd9d9; width: 300px; border: 7px solid #3FB8AF; padding: 20px; margin: 20px;}</style></head><body><center><div><i><font size='4'>28% of the shamers are bloif.</font></i></div></center><h2>It is not the case that most of the shamers are bloif.</h2></body>,False,NULL,1304
1572959134,07cc01221a03472cf291fa5e5ff1bfea,Question2,143,0,Test-Some-Neg-79-devole-sholly,NULL,<head><style>div {background-color: #dbd9d9; width: 300px; border: 7px solid #3FB8AF; padding: 20px; margin: 20px;}</style></head><body><center><div><i><font size='4'>79% of the devoles are sholly.</font></i></div></center><h2>It is not the case that some of the devoles are sholly.</h2></body>,False,NULL,2609
1572959134,07cc01221a03472cf291fa5e5ff1bfea,Question2,28,0,Test-Most-44-tiklet-hullaw,NULL,<head><style>div {background-color: #dbd9d9; width: 300px; border: 7px solid #3FB8AF; padding: 20px; margin: 20px;}</style></head><body><center><div><i><font size='4'>44% of the tiklets are hullaw.</font></i></div></center><h2>It is not the case that most of the tiklets are hullaw.</h2></body>,True,NULL,1011
1572959134,07cc01221a03472cf291fa5e5ff1bfea,Question2,67,0,Test-Some-43-cosut-spover,NULL,<head><style>div {background-color: #dbd9d9; width: 300px; border: 7px solid #3FB8AF; padding: 20px; margin: 20px;}</style></head><body><center><div><i><font size='4'>43% of the cosuts are spover.</font></i></div></center><h2>Some of the cosuts are spover.</h2></body>,False,NULL,3542
1572959134,07cc01221a03472cf291fa5e5ff1bfea,Question2,57,0,Test-Some-16-puggle-entand,NULL,<head><style>div {background-color: #dbd9d9; width: 300px; border: 7px solid #3FB8AF; padding: 20px; margin: 20px;}</style></head><body><center><div><i><font size='4'>16% of the puggles are entand.</font></i></div></center><h2>Some of the puggles are entand.</h2></body>,True,NULL,2800
1572959134,07cc01221a03472cf291fa5e5ff1bfea,Question2,145,0,Test-Some-Neg-77-dorder-coggon,NULL,<head><style>div {background-color: #dbd9d9; width: 300px; border: 7px solid #3FB8AF; padding: 20px; margin: 20px;}</style></head><body><center><div><i><font size='4'>77% of the dorders are coggon.</font></i></div></center><h2>It is not the case that some of the dorders are coggon.</h2></body>,True,NULL,1292
1572959134,07cc01221a03472cf291fa5e5ff1bfea,Question2,86,0,Test-All-60-birler-enciad,NULL,<head><style>div {background-color: #dbd9d9; width: 300px; border: 7px solid #3FB8AF; padding: 20px; margin: 20px;}</style></head><body><center><div><i><font size='4'>60% of the birlers are enciad.</font></i></div></center><h2>All of the birlers are enciad.</h2></body>,False,NULL,1956
1572959134,07cc01221a03472cf291fa5e5ff1bfea,Question2,134,0,Test-All-Neg-74-raster-movell,NULL,<head><style>div {background-color: #dbd9d9; width: 300px; border: 7px solid #3FB8AF; padding: 20px; margin: 20px;}</style></head><body><center><div><i><font size='4'>74% of the rasters are movell.</font></i></div></center><h2>It is not the case that all of the rasters are movell.</h2></body>,False,NULL,1596
1572959134,07cc01221a03472cf291fa5e5ff1bfea,Question2,125,0,Test-Some-Neg-28-monter-melelt,NULL,<head><style>div {background-color: #dbd9d9; width: 300px; border: 7px solid #3FB8AF; padding: 20px; margin: 20px;}</style></head><body><center><div><i><font size='4'>28% of the monters are melelt.</font></i></div></center><h2>It is not the case that some of the monters are melelt.</h2></body>,False,NULL,854
1572959134,07cc01221a03472cf291fa5e5ff1bfea,Question2,63,0,Test-Some-13-clidge-hensly,NULL,<head><style>div {background-color: #dbd9d9; width: 300px; border: 7px solid #3FB8AF; padding: 20px; margin: 20px;}</style></head><body><center><div><i><font size='4'>13% of the clidges are hensly.</font></i></div></center><h2>Some of the clidges are hensly.</h2></body>,False,NULL,11575
1572959134,07cc01221a03472cf291fa5e5ff1bfea,Question2,41,0,Test-Most-68-pliper-sesare,NULL,<head><style>div {background-color: #dbd9d9; width: 300px; border: 7px solid #3FB8AF; padding: 20px; margin: 20px;}</style></head><body><center><div><i><font size='4'>68% of the plipers are sesare.</font></i></div></center><h2>It is not the case that most of the plipers are sesare.</h2></body>,False,NULL,17864
1572959134,07cc01221a03472cf291fa5e5ff1bfea,Question2,135,0,Test-Some-Neg-69-bamet-unzast,NULL,<head><style>div {background-color: #dbd9d9; width: 300px; border: 7px solid #3FB8AF; padding: 20px; margin: 20px;}</style></head><body><center><div><i><font size='4'>69% of the bamets are unzast.</font></i></div></center><h2>It is not the case that some of the bamets are unzast.</h2></body>,False,NULL,753
1572959134,07cc01221a03472cf291fa5e5ff1bfea,Question2,66,0,Test-All-2-spunge-wenple,NULL,<head><style>div {background-color: #dbd9d9; width: 300px; border: 7px solid #3FB8AF; padding: 20px; margin: 20px;}</style></head><body><center><div><i><font size='4'>2% of the spunges are wenple.</font></i></div></center><h2>All of the spunges are wenple.</h2></body>,True,NULL,606
1572959134,07cc01221a03472cf291fa5e5ff1bfea,Question2,13,0,Test-Most-20-mecket-plumry,NULL,<head><style>div {background-color: #dbd9d9; width: 300px; border: 7px solid #3FB8AF; padding: 20px; margin: 20px;}</style></head><body><center><div><i><font size='4'>20% of the meckets are plumry.</font></i></div></center><h2>It is not the case that most of the meckets are plumry.</h2></body>,True,NULL,584
1572959134,07cc01221a03472cf291fa5e5ff1bfea,Question2,123,0,Test-Some-Neg-35-tiklet-hullaw,NULL,<head><style>div {background-color: #dbd9d9; width: 300px; border: 7px solid #3FB8AF; padding: 20px; margin: 20px;}</style></head><body><center><div><i><font size='4'>35% of the tiklets are hullaw.</font></i></div></center><h2>It is not the case that some of the tiklets are hullaw.</h2></body>,False,NULL,663
1572959134,07cc01221a03472cf291fa5e5ff1bfea,Question2,88,0,Test-All-69-menner-nandow,NULL,<head><style>div {background-color: #dbd9d9; width: 300px; border: 7px solid #3FB8AF; padding: 20px; margin: 20px;}</style></head><body><center><div><i><font size='4'>69% of the menners are nandow.</font></i></div></center><h2>All of the menners are nandow.</h2></body>,True,NULL,685
1572959134,07cc01221a03472cf291fa5e5ff1bfea,Question2,77,0,Test-Some-49-shurrie-preser,NULL,<head><style>div {background-color: #dbd9d9; width: 300px; border: 7px solid #3FB8AF; padding: 20px; margin: 20px;}</style></head><body><center><div><i><font size='4'>49% of the shurries are preser.</font></i></div></center><h2>Some of the shurries are preser.</h2></body>,False,NULL,550
1572959134,07cc01221a03472cf291fa5e5ff1bfea,Question2,102,0,Test-All-94-awplor-fasees,NULL,<head><style>div {background-color: #dbd9d9; width: 300px; border: 7px solid #3FB8AF; padding: 20px; margin: 20px;}</style></head><body><center><div><i><font size='4'>94% of the awplors are fasees.</font></i></div></center><h2>All of the awplors are fasees.</h2></body>,False,NULL,1022
1572959134,07cc01221a03472cf291fa5e5ff1bfea,Question2,142,0,Test-All-Neg-89-padnet-fanely,NULL,<head><style>div {background-color: #dbd9d9; width: 300px; border: 7px solid #3FB8AF; padding: 20px; margin: 20px;}</style></head><body><center><div><i><font size='4'>89% of the padnets are fanely.</font></i></div></center><h2>It is not the case that all of the padnets are fanely.</h2></body>,True,NULL,1225
1572959134,07cc01221a03472cf291fa5e5ff1bfea,Question2,32,0,Test-Most-59-pluset-stubad,NULL,<head><style>div {background-color: #dbd9d9; width: 300px; border: 7px solid #3FB8AF; padding: 20px; margin: 20px;}</style></head><body><center><div><i><font size='4'>59% of the plusets are stubad.</font></i></div></center><h2>It is not the case that most of the plusets are stubad.</h2></body>,True,NULL,944
1572959134,07cc01221a03472cf291fa5e5ff1bfea,Question2,112,0,Test-All-Neg-5-schook-jabant,NULL,<head><style>div {background-color: #dbd9d9; width: 300px; border: 7px solid #3FB8AF; padding: 20px; margin: 20px;}</style></head><body><center><div><i><font size='4'>5% of the schooks are jabant.</font></i></div></center><h2>It is not the case that all of the schooks are jabant.</h2></body>,False,NULL,673
1572959134,07cc01221a03472cf291fa5e5ff1bfea,Question2,40,0,Test-Most-52-bamet-unzast,NULL,<head><style>div {background-color: #dbd9d9; width: 300px; border: 7px solid #3FB8AF; padding: 20px; margin: 20px;}</style></head><body><center><div><i><font size='4'>52% of the bamets are unzast.</font></i></div></center><h2>It is not the case that most of the bamets are unzast.</h2></body>,False,NULL,820
1572959134,07cc01221a03472cf291fa5e5ff1bfea,Question2,130,0,Test-All-Neg-61-russer-huttle,NULL,<head><style>div {background-color: #dbd9d9; width: 300px; border: 7px solid #3FB8AF; padding: 20px; margin: 20px;}</style></head><body><center><div><i><font size='4'>61% of the russers are huttle.</font></i></div></center><h2>It is not the case that all of the russers are huttle.</h2></body>,False,NULL,1022
1572959134,07cc01221a03472cf291fa5e5ff1bfea,Question2,33,0,Test-Most-53-umpond-marire,NULL,<head><style>div {background-color: #dbd9d9; width: 300px; border: 7px solid #3FB8AF; padding: 20px; margin: 20px;}</style></head><body><center><div><i><font size='4'>53% of the umponds are marire.</font></i></div></center><h2>It is not the case that most of the umponds are marire.</h2></body>,True,NULL,988
1572959134,07cc01221a03472cf291fa5e5ff1bfea,Question2,65,0,Test-Some-3-spunge-wenple,NULL,<head><style>div {background-color: #dbd9d9; width: 300px; border: 7px solid #3FB8AF; padding: 20px; margin: 20px;}</style></head><body><center><div><i><font size='4'>3% of the spunges are wenple.</font></i></div></center><h2>Some of the spunges are wenple.</h2></body>,False,NULL,797
1572959134,07cc01221a03472cf291fa5e5ff1bfea,Question2,79,0,Test-Some-52-strant-potind,NULL,<head><style>div {background-color: #dbd9d9; width: 300px; border: 7px solid #3FB8AF; padding: 20px; margin: 20px;}</style></head><body><center><div><i><font size='4'>52% of the strants are potind.</font></i></div></center><h2>Some of the strants are potind.</h2></body>,False,NULL,1000
1572959134,07cc01221a03472cf291fa5e5ff1bfea,Question2,91,0,Test-Some-90-sporer-firtly,NULL,<head><style>div {background-color: #dbd9d9; width: 300px; border: 7px solid #3FB8AF; padding: 20px; margin: 20px;}</style></head><body><center><div><i><font size='4'>90% of the sporers are firtly.</font></i></div></center><h2>Some of the sporers are firtly.</h2></body>,False,NULL,1078
1572959134,07cc01221a03472cf291fa5e5ff1bfea,Question2,81,0,Test-Some-59-umpond-marire,NULL,<head><style>div {background-color: #dbd9d9; width: 300px; border: 7px solid #3FB8AF; padding: 20px; margin: 20px;}</style></head><body><center><div><i><font size='4'>59% of the umponds are marire.</font></i></div></center><h2>Some of the umponds are marire.</h2></body>,True,NULL,1000
1572959134,07cc01221a03472cf291fa5e5ff1bfea,Question2,17,0,Test-Most-11-spunge-wenple,NULL,<head><style>div {background-color: #dbd9d9; width: 300px; border: 7px solid #3FB8AF; padding: 20px; margin: 20px;}</style></head><body><center><div><i><font size='4'>11% of the spunges are wenple.</font></i></div></center><h2>It is not the case that most of the spunges are wenple.</h2></body>,False,NULL,944
1572959134,07cc01221a03472cf291fa5e5ff1bfea,Question2,43,0,Test-Most-92-sporer-firtly,NULL,<head><style>div {background-color: #dbd9d9; width: 300px; border: 7px solid #3FB8AF; padding: 20px; margin: 20px;}</style></head><body><center><div><i><font size='4'>92% of the sporers are firtly.</font></i></div></center><h2>It is not the case that most of the sporers are firtly.</h2></body>,False,NULL,9044
1572959134,07cc01221a03472cf291fa5e5ff1bfea,Question2,100,0,Test-All-76-puctor-recure,NULL,<head><style>div {background-color: #dbd9d9; width: 300px; border: 7px solid #3FB8AF; padding: 20px; margin: 20px;}</style></head><body><center><div><i><font size='4'>76% of the puctors are recure.</font></i></div></center><h2>All of the puctors are recure.</h2></body>,True,NULL,876
1572959134,07cc01221a03472cf291fa5e5ff1bfea,Question2,103,0,Test-Some-Neg-21-beckel-racual,NULL,<head><style>div {background-color: #dbd9d9; width: 300px; border: 7px solid #3FB8AF; padding: 20px; margin: 20px;}</style></head><body><center><div><i><font size='4'>21% of the beckels are racual.</font></i></div></center><h2>It is not the case that some of the beckels are racual.</h2></body>,False,NULL,3206
1572959134,07cc01221a03472cf291fa5e5ff1bfea,Question2,114,0,Test-All-Neg-3-shrile-athoid,NULL,<head><style>div {background-color: #dbd9d9; width: 300px; border: 7px solid #3FB8AF; padding: 20px; margin: 20px;}</style></head><body><center><div><i><font size='4'>3% of the shriles are athoid.</font></i></div></center><h2>It is not the case that all of the shriles are athoid.</h2></body>,False,NULL,4082
1572959134,07cc01221a03472cf291fa5e5ff1bfea,Question2,45,0,Test-Most-99-pobbit-spippy,NULL,<head><style>div {background-color: #dbd9d9; width: 300px; border: 7px solid #3FB8AF; padding: 20px; margin: 20px;}</style></head><body><center><div><i><font size='4'>99% of the pobbits are spippy.</font></i></div></center><h2>It is not the case that most of the pobbits are spippy.</h2></body>,True,NULL,741
1572959134,07cc01221a03472cf291fa5e5ff1bfea,Question2,137,0,Test-Some-Neg-53-coppar-hunene,NULL,<head><style>div {background-color: #dbd9d9; width: 300px; border: 7px solid #3FB8AF; padding: 20px; margin: 20px;}</style></head><body><center><div><i><font size='4'>53% of the coppars are hunene.</font></i></div></center><h2>It is not the case that some of the coppars are hunene.</h2></body>,False,NULL,2305
1572959134,07cc01221a03472cf291fa5e5ff1bfea,Question2,68,0,Test-All-25-cosut-spover,NULL,<head><style>div {background-color: #dbd9d9; width: 300px; border: 7px solid #3FB8AF; padding: 20px; margin: 20px;}</style></head><body><center><div><i><font size='4'>25% of the cosuts are spover.</font></i></div></center><h2>All of the cosuts are spover.</h2></body>,False,NULL,1878
1572959134,07cc01221a03472cf291fa5e5ff1bfea,Question2,148,0,Test-All-Neg-92-chevel-podden,NULL,<head><style>div {background-color: #dbd9d9; width: 300px; border: 7px solid #3FB8AF; padding: 20px; margin: 20px;}</style></head><body><center><div><i><font size='4'>92% of the chevels are podden.</font></i></div></center><h2>It is not the case that all of the chevels are podden.</h2></body>,True,NULL,1203
1572959134,07cc01221a03472cf291fa5e5ff1bfea,Question2,94,0,Test-All-79-pobbit-spippy,NULL,<head><style>div {background-color: #dbd9d9; width: 300px; border: 7px solid #3FB8AF; padding: 20px; margin: 20px;}</style></head><body><center><div><i><font size='4'>79% of the pobbits are spippy.</font></i></div></center><h2>All of the pobbits are spippy.</h2></body>,False,NULL,1079
1572959134,07cc01221a03472cf291fa5e5ff1bfea,Question2,129,0,Test-Some-Neg-58-russer-huttle,NULL,<head><style>div {background-color: #dbd9d9; width: 300px; border: 7px solid #3FB8AF; padding: 20px; margin: 20px;}</style></head><body><center><div><i><font size='4'>58% of the russers are huttle.</font></i></div></center><h2>It is not the case that some of the russers are huttle.</h2></body>,False,NULL,662
1572959134,07cc01221a03472cf291fa5e5ff1bfea,Question2,146,0,Test-All-Neg-80-dorder-coggon,NULL,<head><style>div {background-color: #dbd9d9; width: 300px; border: 7px solid #3FB8AF; padding: 20px; margin: 20px;}</style></head><body><center><div><i><font size='4'>80% of the dorders are coggon.</font></i></div></center><h2>It is not the case that all of the dorders are coggon.</h2></body>,True,NULL,1405
1572959134,07cc01221a03472cf291fa5e5ff1bfea,Question2,139,0,Test-Some-Neg-93-pirter-secent,NULL,<head><style>div {background-color: #dbd9d9; width: 300px; border: 7px solid #3FB8AF; padding: 20px; margin: 20px;}</style></head><body><center><div><i><font size='4'>93% of the pirters are secent.</font></i></div></center><h2>It is not the case that some of the pirters are secent.</h2></body>,False,NULL,752
1572959134,07cc01221a03472cf291fa5e5ff1bfea,Question2,50,0,Test-Most-97-dorder-coggon,NULL,<head><style>div {background-color: #dbd9d9; width: 300px; border: 7px solid #3FB8AF; padding: 20px; margin: 20px;}</style></head><body><center><div><i><font size='4'>97% of the dorders are coggon.</font></i></div></center><h2>It is not the case that most of the dorders are coggon.</h2></body>,False,NULL,5489
1572959134,07cc01221a03472cf291fa5e5ff1bfea,Question2,38,0,Test-Most-71-raster-movell,NULL,<head><style>div {background-color: #dbd9d9; width: 300px; border: 7px solid #3FB8AF; padding: 20px; margin: 20px;}</style></head><body><center><div><i><font size='4'>71% of the rasters are movell.</font></i></div></center><h2>It is not the case that most of the rasters are movell.</h2></body>,True,NULL,527
1572959134,07cc01221a03472cf291fa5e5ff1bfea,Question2,84,0,Test-All-62-cather-funder,NULL,<head><style>div {background-color: #dbd9d9; width: 300px; border: 7px solid #3FB8AF; padding: 20px; margin: 20px;}</style></head><body><center><div><i><font size='4'>62% of the cathers are funder.</font></i></div></center><h2>All of the cathers are funder.</h2></body>,False,NULL,1642
1572959134,07cc01221a03472cf291fa5e5ff1bfea,Question2,61,0,Test-Some-15-mecket-plumry,NULL,<head><style>div {background-color: #dbd9d9; width: 300px; border: 7px solid #3FB8AF; padding: 20px; margin: 20px;}</style></head><body><center><div><i><font size='4'>15% of the meckets are plumry.</font></i></div></center><h2>Some of the meckets are plumry.</h2></body>,False,NULL,775
1572959134,07cc01221a03472cf291fa5e5ff1bfea,Question2,48,0,Test-Most-86-devole-sholly,NULL,<head><style>div {background-color: #dbd9d9; width: 300px; border: 7px solid #3FB8AF; padding: 20px; margin: 20px;}</style></head><body><center><div><i><font size='4'>86% of the devoles are sholly.</font></i></div></center><h2>It is not the case that most of the devoles are sholly.</h2></body>,False,NULL,550
1572959134,07cc01221a03472cf291fa5e5ff1bfea,Question2,29,0,Test-Most-33-shurrie-preser,NULL,<head><style>div {background-color: #dbd9d9; width: 300px; border: 7px solid #3FB8AF; padding: 20px; margin: 20px;}</style></head><body><center><div><i><font size='4'>33% of the shurries are preser.</font></i></div></center><h2>It is not the case that most of the shurries are preser.</h2></body>,False,NULL,921
1572959134,07cc01221a03472cf291fa5e5ff1bfea,Question2,108,0,Test-All-Neg-24-werner-hurmer,NULL,<head><style>div {background-color: #dbd9d9; width: 300px; border: 7px solid #3FB8AF; padding: 20px; margin: 20px;}</style></head><body><center><div><i><font size='4'>24% of the werners are hurmer.</font></i></div></center><h2>It is not the case that all of the werners are hurmer.</h2></body>,True,NULL,708
1572959134,07cc01221a03472cf291fa5e5ff1bfea,Question2,98,0,Test-All-81-jallem-sildal,NULL,<head><style>div {background-color: #dbd9d9; width: 300px; border: 7px solid #3FB8AF; padding: 20px; margin: 20px;}</style></head><body><center><div><i><font size='4'>81% of the jallems are sildal.</font></i></div></center><h2>All of the jallems are sildal.</h2></body>,False,NULL,11283
1572959134,07cc01221a03472cf291fa5e5ff1bfea,Question2,87,0,Test-Some-61-menner-nandow,NULL,<head><style>div {background-color: #dbd9d9; width: 300px; border: 7px solid #3FB8AF; padding: 20px; margin: 20px;}</style></head><body><center><div><i><font size='4'>61% of the menners are nandow.</font></i></div></center><h2>Some of the menners are nandow.</h2></body>,True,NULL,3576
1572959134,07cc01221a03472cf291fa5e5ff1bfea,Question2,95,0,Test-Some-75-boddle-molill,NULL,<head><style>div {background-color: #dbd9d9; width: 300px; border: 7px solid #3FB8AF; padding: 20px; margin: 20px;}</style></head><body><center><div><i><font size='4'>75% of the boddles are molill.</font></i></div></center><h2>Some of the boddles are molill.</h2></body>,True,NULL,1518
1572959134,07cc01221a03472cf291fa5e5ff1bfea,Question2,7,0,Test-Most-3-kustle-reshix,NULL,<head><style>div {background-color: #dbd9d9; width: 300px; border: 7px solid #3FB8AF; padding: 20px; margin: 20px;}</style></head><body><center><div><i><font size='4'>3% of the kustles are reshix.</font></i></div></center><h2>It is not the case that most of the kustles are reshix.</h2></body>,False,NULL,1754
1572959134,07cc01221a03472cf291fa5e5ff1bfea,Question2,12,0,Test-Most-10-werner-hurmer,NULL,<head><style>div {background-color: #dbd9d9; width: 300px; border: 7px solid #3FB8AF; padding: 20px; margin: 20px;}</style></head><body><center><div><i><font size='4'>10% of the werners are hurmer.</font></i></div></center><h2>It is not the case that most of the werners are hurmer.</h2></body>,False,NULL,989
# The lines below this comment are in groups of 2.
# The formats of the lines in each of these groups are as follows:
#
# Line 1:
#     Col. 1: Time results were received.
#     Col. 2: MD5 hash of participant's IP address.
#     Col. 3: Controller name.
#     Col. 4: Item number.
#     Col. 5: Element number.
#     Col. 6: Type.
#     Col. 7: Group.
#     Col. 8: html.
#     Col. 9: value.
# Line 2:
#     Col. 1: Time results were received.
#     Col. 2: MD5 hash of participant's IP address.
#     Col. 3: Controller name.
#     Col. 4: Item number.
#     Col. 5: Element number.
#     Col. 6: Type.
#     Col. 7: Group.
#     Col. 8: Field name.
#     Col. 9: Field value.
1572959134,07cc01221a03472cf291fa5e5ff1bfea,SliderQuestion1,4,0,Criterionneg,NULL,<center><p style=" font-size: 1.4em;font-family: Book Antiqua%2C Palatino%2C serif;">It is not the case that most of the kallils are namib.</p><p align="justify" %2C="" style="width:500px;"><i>In this study%2C we are interested in how people interpret sentences which begin with "It is not the case that most of the"%2C such as the sentence above. We would like to know what your criterion was in the task you have just completed to say that such sentences are true. What is the maximum percentage that you would understand of kallils to be namib? Please position the slider below as close as possible to that percentage. Once you have done that%2C press 'Continue'.</i></p></center>,49.78
1572959134,07cc01221a03472cf291fa5e5ff1bfea,NewForm,151,0,form,NULL,language,english
# Columns below this comment are as follows:
# 1. Time results were received.
# 2. MD5 hash of participant's IP address.
# 3. Controller name.
# 4. Item number.
# 5. Element number.
# 6. Type.
# 7. Group.
# 8. Field name.
# 9. Field value.
1572959134,07cc01221a03472cf291fa5e5ff1bfea,NewForm,151,0,form,NULL,ProlificID,5ae82944a0e4390001f090fd
1572959134,07cc01221a03472cf291fa5e5ff1bfea,NewForm,151,0,form,NULL,comment,very confusing task 
1572959134,07cc01221a03472cf291fa5e5ff1bfea,NewForm,151,0,form,NULL,_REACTION_TIME_,57025
#
# Results on Tuesday November 05 2019 13:06:33 UTC.
# USER AGENT: Mozilla/5.0 (Windows NT 10.0; Win64; x64) AppleWebKit/537.36 (KHTML, like Gecko) Chrome/77.0.3865.120 Safari/537.36
# Design number was non-random = 1
#
# Columns below this comment are as follows:
# 1. Time results were received.
# 2. MD5 hash of participant's IP address.
# 3. Controller name.
# 4. Item number.
# 5. Element number.
# 6. Type.
# 7. Group.
# 8. Field name.
# 9. Field value.
1572959194,73f45f16a98c6937e1a01c6ec3d5a750,NewForm,0,0,agreement,NULL,,yes
1572959194,73f45f16a98c6937e1a01c6ec3d5a750,NewForm,0,0,agreement,NULL,_REACTION_TIME_,4226
1572959194,73f45f16a98c6937e1a01c6ec3d5a750,NewForm,1,0,instructions1,NULL,,yes
1572959194,73f45f16a98c6937e1a01c6ec3d5a750,NewForm,1,0,instructions1,NULL,_REACTION_TIME_,7347
# Columns below this comment are as follows:
# 1. Time results were received.
# 2. MD5 hash of participant's IP address.
# 3. Controller name.
# 4. Item number.
# 5. Element number.
# 6. Type.
# 7. Group.
# 8. Question (NULL if none).
# 9. Answer.
# 10. Whether or not answer was correct (NULL if N/A).
# 11. Time taken to answer.
1572959194,73f45f16a98c6937e1a01c6ec3d5a750,Question2,5,0,practice-some,NULL,<head><style>div {background-color: #dbd9d9; width: 300px; border: 7px solid #3FB8AF; padding: 20px; margin: 20px;}</style></head><body><center><div><i><font size='4'> 20% of the glerbs are fizda.</font></i></div></center><h2>Some of the glerbs are fizda.</h2></body>,True,NULL,3947
1572959194,73f45f16a98c6937e1a01c6ec3d5a750,Question2,6,0,practice-all,NULL,<head><style>div {background-color: #dbd9d9; width: 300px; border: 7px solid #3FB8AF; padding: 20px; margin: 20px;}</style></head><body><center><div><i><font size='4'> 82% of the thonks are crangly.</font></i></div></center><h2>All of the thonks are crangly.</h2></body>,False,NULL,1542
1572959194,73f45f16a98c6937e1a01c6ec3d5a750,Question2,37,0,Test-Most-55-birler-enciad,NULL,<head><style>div {background-color: #dbd9d9; width: 300px; border: 7px solid #3FB8AF; padding: 20px; margin: 20px;}</style></head><body><center><div><i><font size='4'>55% of the birlers are enciad.</font></i></div></center><h2>It is not the case that most of the birlers are enciad.</h2></body>,True,NULL,7561
1572959194,73f45f16a98c6937e1a01c6ec3d5a750,Question2,25,0,Test-Most-42-hadder-ollidy,NULL,<head><style>div {background-color: #dbd9d9; width: 300px; border: 7px solid #3FB8AF; padding: 20px; margin: 20px;}</style></head><body><center><div><i><font size='4'>42% of the hadders are ollidy.</font></i></div></center><h2>It is not the case that most of the hadders are ollidy.</h2></body>,False,NULL,4857
1572959194,73f45f16a98c6937e1a01c6ec3d5a750,Question2,40,0,Test-Most-52-bamet-unzast,NULL,<head><style>div {background-color: #dbd9d9; width: 300px; border: 7px solid #3FB8AF; padding: 20px; margin: 20px;}</style></head><body><center><div><i><font size='4'>52% of the bamets are unzast.</font></i></div></center><h2>It is not the case that most of the bamets are unzast.</h2></body>,False,NULL,3879
1572959194,73f45f16a98c6937e1a01c6ec3d5a750,Question2,130,0,Test-All-Neg-61-russer-huttle,NULL,<head><style>div {background-color: #dbd9d9; width: 300px; border: 7px solid #3FB8AF; padding: 20px; margin: 20px;}</style></head><body><center><div><i><font size='4'>61% of the russers are huttle.</font></i></div></center><h2>It is not the case that all of the russers are huttle.</h2></body>,True,NULL,3022
1572959194,73f45f16a98c6937e1a01c6ec3d5a750,Question2,129,0,Test-Some-Neg-58-russer-huttle,NULL,<head><style>div {background-color: #dbd9d9; width: 300px; border: 7px solid #3FB8AF; padding: 20px; margin: 20px;}</style></head><body><center><div><i><font size='4'>58% of the russers are huttle.</font></i></div></center><h2>It is not the case that some of the russers are huttle.</h2></body>,True,NULL,5757
1572959194,73f45f16a98c6937e1a01c6ec3d5a750,Question2,128,0,Test-All-Neg-51-pluset-stubad,NULL,<head><style>div {background-color: #dbd9d9; width: 300px; border: 7px solid #3FB8AF; padding: 20px; margin: 20px;}</style></head><body><center><div><i><font size='4'>51% of the plusets are stubad.</font></i></div></center><h2>It is not the case that all of the plusets are stubad.</h2></body>,False,NULL,5228
1572959194,73f45f16a98c6937e1a01c6ec3d5a750,Question2,74,0,Test-All-46-hadder-ollidy,NULL,<head><style>div {background-color: #dbd9d9; width: 300px; border: 7px solid #3FB8AF; padding: 20px; margin: 20px;}</style></head><body><center><div><i><font size='4'>46% of the hadders are ollidy.</font></i></div></center><h2>All of the hadders are ollidy.</h2></body>,False,NULL,3441
1572959194,73f45f16a98c6937e1a01c6ec3d5a750,Question2,52,0,Test-Most-85-chevel-podden,NULL,<head><style>div {background-color: #dbd9d9; width: 300px; border: 7px solid #3FB8AF; padding: 20px; margin: 20px;}</style></head><body><center><div><i><font size='4'>85% of the chevels are podden.</font></i></div></center><h2>It is not the case that most of the chevels are podden.</h2></body>,False,NULL,5761
1572959194,73f45f16a98c6937e1a01c6ec3d5a750,Question2,135,0,Test-Some-Neg-69-bamet-unzast,NULL,<head><style>div {background-color: #dbd9d9; width: 300px; border: 7px solid #3FB8AF; padding: 20px; margin: 20px;}</style></head><body><center><div><i><font size='4'>69% of the bamets are unzast.</font></i></div></center><h2>It is not the case that some of the bamets are unzast.</h2></body>,False,NULL,5498
1572959194,73f45f16a98c6937e1a01c6ec3d5a750,Question2,116,0,Test-All-Neg-29-coamin-mucond,NULL,<head><style>div {background-color: #dbd9d9; width: 300px; border: 7px solid #3FB8AF; padding: 20px; margin: 20px;}</style></head><body><center><div><i><font size='4'>29% of the coamins are mucond.</font></i></div></center><h2>It is not the case that all of the coamins are mucond.</h2></body>,False,NULL,3935
1572959194,73f45f16a98c6937e1a01c6ec3d5a750,Question2,99,0,Test-Some-100-puctor-recure,NULL,<head><style>div {background-color: #dbd9d9; width: 300px; border: 7px solid #3FB8AF; padding: 20px; margin: 20px;}</style></head><body><center><div><i><font size='4'>100% of the puctors are recure.</font></i></div></center><h2>Some of the puctors are recure.</h2></body>,False,NULL,4222
1572959194,73f45f16a98c6937e1a01c6ec3d5a750,Question2,63,0,Test-Some-13-clidge-hensly,NULL,<head><style>div {background-color: #dbd9d9; width: 300px; border: 7px solid #3FB8AF; padding: 20px; margin: 20px;}</style></head><body><center><div><i><font size='4'>13% of the clidges are hensly.</font></i></div></center><h2>Some of the clidges are hensly.</h2></body>,True,NULL,2471
1572959194,73f45f16a98c6937e1a01c6ec3d5a750,Question2,55,0,Test-Some-19-kustle-reshix,NULL,<head><style>div {background-color: #dbd9d9; width: 300px; border: 7px solid #3FB8AF; padding: 20px; margin: 20px;}</style></head><body><center><div><i><font size='4'>19% of the kustles are reshix.</font></i></div></center><h2>Some of the kustles are reshix.</h2></body>,True,NULL,2155
1572959194,73f45f16a98c6937e1a01c6ec3d5a750,Question2,114,0,Test-All-Neg-3-shrile-athoid,NULL,<head><style>div {background-color: #dbd9d9; width: 300px; border: 7px solid #3FB8AF; padding: 20px; margin: 20px;}</style></head><body><center><div><i><font size='4'>3% of the shriles are athoid.</font></i></div></center><h2>It is not the case that all of the shriles are athoid.</h2></body>,True,NULL,5384
1572959194,73f45f16a98c6937e1a01c6ec3d5a750,Question2,98,0,Test-All-81-jallem-sildal,NULL,<head><style>div {background-color: #dbd9d9; width: 300px; border: 7px solid #3FB8AF; padding: 20px; margin: 20px;}</style></head><body><center><div><i><font size='4'>81% of the jallems are sildal.</font></i></div></center><h2>All of the jallems are sildal.</h2></body>,False,NULL,3024
1572959194,73f45f16a98c6937e1a01c6ec3d5a750,Question2,35,0,Test-Most-67-cather-funder,NULL,<head><style>div {background-color: #dbd9d9; width: 300px; border: 7px solid #3FB8AF; padding: 20px; margin: 20px;}</style></head><body><center><div><i><font size='4'>67% of the cathers are funder.</font></i></div></center><h2>It is not the case that most of the cathers are funder.</h2></body>,False,NULL,3729
1572959194,73f45f16a98c6937e1a01c6ec3d5a750,Question2,33,0,Test-Most-53-umpond-marire,NULL,<head><style>div {background-color: #dbd9d9; width: 300px; border: 7px solid #3FB8AF; padding: 20px; margin: 20px;}</style></head><body><center><div><i><font size='4'>53% of the umponds are marire.</font></i></div></center><h2>It is not the case that most of the umponds are marire.</h2></body>,True,NULL,3406
1572959194,73f45f16a98c6937e1a01c6ec3d5a750,Question2,115,0,Test-Some-Neg-29-coamin-mucond,NULL,<head><style>div {background-color: #dbd9d9; width: 300px; border: 7px solid #3FB8AF; padding: 20px; margin: 20px;}</style></head><body><center><div><i><font size='4'>29% of the coamins are mucond.</font></i></div></center><h2>It is not the case that some of the coamins are mucond.</h2></body>,True,NULL,4012
1572959194,73f45f16a98c6937e1a01c6ec3d5a750,Question2,90,0,Test-All-70-pliper-sesare,NULL,<head><style>div {background-color: #dbd9d9; width: 300px; border: 7px solid #3FB8AF; padding: 20px; margin: 20px;}</style></head><body><center><div><i><font size='4'>70% of the plipers are sesare.</font></i></div></center><h2>All of the plipers are sesare.</h2></body>,False,NULL,2896
1572959194,73f45f16a98c6937e1a01c6ec3d5a750,Question2,66,0,Test-All-2-spunge-wenple,NULL,<head><style>div {background-color: #dbd9d9; width: 300px; border: 7px solid #3FB8AF; padding: 20px; margin: 20px;}</style></head><body><center><div><i><font size='4'>2% of the spunges are wenple.</font></i></div></center><h2>All of the spunges are wenple.</h2></body>,False,NULL,4650
1572959194,73f45f16a98c6937e1a01c6ec3d5a750,Question2,67,0,Test-Some-43-cosut-spover,NULL,<head><style>div {background-color: #dbd9d9; width: 300px; border: 7px solid #3FB8AF; padding: 20px; margin: 20px;}</style></head><body><center><div><i><font size='4'>43% of the cosuts are spover.</font></i></div></center><h2>Some of the cosuts are spover.</h2></body>,True,NULL,7697
1572959194,73f45f16a98c6937e1a01c6ec3d5a750,Question2,113,0,Test-Some-Neg-12-shrile-athoid,NULL,<head><style>div {background-color: #dbd9d9; width: 300px; border: 7px solid #3FB8AF; padding: 20px; margin: 20px;}</style></head><body><center><div><i><font size='4'>12% of the shriles are athoid.</font></i></div></center><h2>It is not the case that some of the shriles are athoid.</h2></body>,False,NULL,3705
1572959194,73f45f16a98c6937e1a01c6ec3d5a750,Question2,106,0,Test-All-Neg-9-chadop-shaple,NULL,<head><style>div {background-color: #dbd9d9; width: 300px; border: 7px solid #3FB8AF; padding: 20px; margin: 20px;}</style></head><body><center><div><i><font size='4'>9% of the chadops are shaple.</font></i></div></center><h2>It is not the case that all of the chadops are shaple.</h2></body>,True,NULL,3879
1572959194,73f45f16a98c6937e1a01c6ec3d5a750,Question2,32,0,Test-Most-59-pluset-stubad,NULL,<head><style>div {background-color: #dbd9d9; width: 300px; border: 7px solid #3FB8AF; padding: 20px; margin: 20px;}</style></head><body><center><div><i><font size='4'>59% of the plusets are stubad.</font></i></div></center><h2>It is not the case that most of the plusets are stubad.</h2></body>,True,NULL,2721
1572959194,73f45f16a98c6937e1a01c6ec3d5a750,Question2,36,0,Test-Most-65-tecker-biller,NULL,<head><style>div {background-color: #dbd9d9; width: 300px; border: 7px solid #3FB8AF; padding: 20px; margin: 20px;}</style></head><body><center><div><i><font size='4'>65% of the teckers are biller.</font></i></div></center><h2>It is not the case that most of the teckers are biller.</h2></body>,True,NULL,3327
1572959194,73f45f16a98c6937e1a01c6ec3d5a750,Question2,53,0,Test-Most-84-awplor-fasees,NULL,<head><style>div {background-color: #dbd9d9; width: 300px; border: 7px solid #3FB8AF; padding: 20px; margin: 20px;}</style></head><body><center><div><i><font size='4'>84% of the awplors are fasees.</font></i></div></center><h2>It is not the case that most of the awplors are fasees.</h2></body>,True,NULL,4904
1572959194,73f45f16a98c6937e1a01c6ec3d5a750,Question2,137,0,Test-Some-Neg-53-coppar-hunene,NULL,<head><style>div {background-color: #dbd9d9; width: 300px; border: 7px solid #3FB8AF; padding: 20px; margin: 20px;}</style></head><body><center><div><i><font size='4'>53% of the coppars are hunene.</font></i></div></center><h2>It is not the case that some of the coppars are hunene.</h2></body>,True,NULL,4946
1572959194,73f45f16a98c6937e1a01c6ec3d5a750,Question2,80,0,Test-All-68-strant-potind,NULL,<head><style>div {background-color: #dbd9d9; width: 300px; border: 7px solid #3FB8AF; padding: 20px; margin: 20px;}</style></head><body><center><div><i><font size='4'>68% of the strants are potind.</font></i></div></center><h2>All of the strants are potind.</h2></body>,False,NULL,2458
1572959194,73f45f16a98c6937e1a01c6ec3d5a750,Question2,13,0,Test-Most-20-mecket-plumry,NULL,<head><style>div {background-color: #dbd9d9; width: 300px; border: 7px solid #3FB8AF; padding: 20px; margin: 20px;}</style></head><body><center><div><i><font size='4'>20% of the meckets are plumry.</font></i></div></center><h2>It is not the case that most of the meckets are plumry.</h2></body>,True,NULL,2771
1572959194,73f45f16a98c6937e1a01c6ec3d5a750,Question2,48,0,Test-Most-86-devole-sholly,NULL,<head><style>div {background-color: #dbd9d9; width: 300px; border: 7px solid #3FB8AF; padding: 20px; margin: 20px;}</style></head><body><center><div><i><font size='4'>86% of the devoles are sholly.</font></i></div></center><h2>It is not the case that most of the devoles are sholly.</h2></body>,True,NULL,2418
1572959194,73f45f16a98c6937e1a01c6ec3d5a750,Question2,77,0,Test-Some-49-shurrie-preser,NULL,<head><style>div {background-color: #dbd9d9; width: 300px; border: 7px solid #3FB8AF; padding: 20px; margin: 20px;}</style></head><body><center><div><i><font size='4'>49% of the shurries are preser.</font></i></div></center><h2>Some of the shurries are preser.</h2></body>,True,NULL,1963
1572959194,73f45f16a98c6937e1a01c6ec3d5a750,Question2,71,0,Test-Some-32-ancit-smeath,NULL,<head><style>div {background-color: #dbd9d9; width: 300px; border: 7px solid #3FB8AF; padding: 20px; margin: 20px;}</style></head><body><center><div><i><font size='4'>32% of the ancits are smeath.</font></i></div></center><h2>Some of the ancits are smeath.</h2></body>,True,NULL,2220
1572959194,73f45f16a98c6937e1a01c6ec3d5a750,Question2,97,0,Test-Some-76-jallem-sildal,NULL,<head><style>div {background-color: #dbd9d9; width: 300px; border: 7px solid #3FB8AF; padding: 20px; margin: 20px;}</style></head><body><center><div><i><font size='4'>76% of the jallems are sildal.</font></i></div></center><h2>Some of the jallems are sildal.</h2></body>,True,NULL,2368
1572959194,73f45f16a98c6937e1a01c6ec3d5a750,Question2,26,0,Test-Most-41-zetten-unfobs,NULL,<head><style>div {background-color: #dbd9d9; width: 300px; border: 7px solid #3FB8AF; padding: 20px; margin: 20px;}</style></head><body><center><div><i><font size='4'>41% of the zettens are unfobs.</font></i></div></center><h2>It is not the case that most of the zettens are unfobs.</h2></body>,False,NULL,2546
1572959194,73f45f16a98c6937e1a01c6ec3d5a750,Question2,50,0,Test-Most-97-dorder-coggon,NULL,<head><style>div {background-color: #dbd9d9; width: 300px; border: 7px solid #3FB8AF; padding: 20px; margin: 20px;}</style></head><body><center><div><i><font size='4'>97% of the dorders are coggon.</font></i></div></center><h2>It is not the case that most of the dorders are coggon.</h2></body>,True,NULL,6920
1572959194,73f45f16a98c6937e1a01c6ec3d5a750,Question2,51,0,Test-Most-93-puctor-recure,NULL,<head><style>div {background-color: #dbd9d9; width: 300px; border: 7px solid #3FB8AF; padding: 20px; margin: 20px;}</style></head><body><center><div><i><font size='4'>93% of the puctors are recure.</font></i></div></center><h2>It is not the case that most of the puctors are recure.</h2></body>,False,NULL,4506
1572959194,73f45f16a98c6937e1a01c6ec3d5a750,Question2,87,0,Test-Some-61-menner-nandow,NULL,<head><style>div {background-color: #dbd9d9; width: 300px; border: 7px solid #3FB8AF; padding: 20px; margin: 20px;}</style></head><body><center><div><i><font size='4'>61% of the menners are nandow.</font></i></div></center><h2>Some of the menners are nandow.</h2></body>,True,NULL,2946
1572959194,73f45f16a98c6937e1a01c6ec3d5a750,Question2,42,0,Test-Most-73-coppar-hunene,NULL,<head><style>div {background-color: #dbd9d9; width: 300px; border: 7px solid #3FB8AF; padding: 20px; margin: 20px;}</style></head><body><center><div><i><font size='4'>73% of the coppars are hunene.</font></i></div></center><h2>It is not the case that most of the coppars are hunene.</h2></body>,False,NULL,3753
1572959194,73f45f16a98c6937e1a01c6ec3d5a750,Question2,117,0,Test-Some-Neg-40-middor-drooty,NULL,<head><style>div {background-color: #dbd9d9; width: 300px; border: 7px solid #3FB8AF; padding: 20px; margin: 20px;}</style></head><body><center><div><i><font size='4'>40% of the middors are drooty.</font></i></div></center><h2>It is not the case that some of the middors are drooty.</h2></body>,True,NULL,2665
1572959194,73f45f16a98c6937e1a01c6ec3d5a750,Question2,65,0,Test-Some-3-spunge-wenple,NULL,<head><style>div {background-color: #dbd9d9; width: 300px; border: 7px solid #3FB8AF; padding: 20px; margin: 20px;}</style></head><body><center><div><i><font size='4'>3% of the spunges are wenple.</font></i></div></center><h2>Some of the spunges are wenple.</h2></body>,True,NULL,2955
1572959194,73f45f16a98c6937e1a01c6ec3d5a750,Question2,79,0,Test-Some-52-strant-potind,NULL,<head><style>div {background-color: #dbd9d9; width: 300px; border: 7px solid #3FB8AF; padding: 20px; margin: 20px;}</style></head><body><center><div><i><font size='4'>52% of the strants are potind.</font></i></div></center><h2>Some of the strants are potind.</h2></body>,True,NULL,2800
1572959194,73f45f16a98c6937e1a01c6ec3d5a750,Question2,72,0,Test-All-40-ancit-smeath,NULL,<head><style>div {background-color: #dbd9d9; width: 300px; border: 7px solid #3FB8AF; padding: 20px; margin: 20px;}</style></head><body><center><div><i><font size='4'>40% of the ancits are smeath.</font></i></div></center><h2>All of the ancits are smeath.</h2></body>,True,NULL,3690
1572959194,73f45f16a98c6937e1a01c6ec3d5a750,Question2,112,0,Test-All-Neg-5-schook-jabant,NULL,<head><style>div {background-color: #dbd9d9; width: 300px; border: 7px solid #3FB8AF; padding: 20px; margin: 20px;}</style></head><body><center><div><i><font size='4'>5% of the schooks are jabant.</font></i></div></center><h2>It is not the case that all of the schooks are jabant.</h2></body>,False,NULL,3561
1572959194,73f45f16a98c6937e1a01c6ec3d5a750,Question2,8,0,Test-Most-13-beckel-racual,NULL,<head><style>div {background-color: #dbd9d9; width: 300px; border: 7px solid #3FB8AF; padding: 20px; margin: 20px;}</style></head><body><center><div><i><font size='4'>13% of the beckels are racual.</font></i></div></center><h2>It is not the case that most of the beckels are racual.</h2></body>,True,NULL,2363
1572959194,73f45f16a98c6937e1a01c6ec3d5a750,Question2,47,0,Test-Most-94-boddle-molill,NULL,<head><style>div {background-color: #dbd9d9; width: 300px; border: 7px solid #3FB8AF; padding: 20px; margin: 20px;}</style></head><body><center><div><i><font size='4'>94% of the boddles are molill.</font></i></div></center><h2>It is not the case that most of the boddles are molill.</h2></body>,True,NULL,2873
1572959194,73f45f16a98c6937e1a01c6ec3d5a750,Question2,81,0,Test-Some-59-umpond-marire,NULL,<head><style>div {background-color: #dbd9d9; width: 300px; border: 7px solid #3FB8AF; padding: 20px; margin: 20px;}</style></head><body><center><div><i><font size='4'>59% of the umponds are marire.</font></i></div></center><h2>Some of the umponds are marire.</h2></body>,True,NULL,3299
1572959194,73f45f16a98c6937e1a01c6ec3d5a750,Question2,30,0,Test-Most-38-monter-melelt,NULL,<head><style>div {background-color: #dbd9d9; width: 300px; border: 7px solid #3FB8AF; padding: 20px; margin: 20px;}</style></head><body><center><div><i><font size='4'>38% of the monters are melelt.</font></i></div></center><h2>It is not the case that most of the monters are melelt.</h2></body>,False,NULL,1706
1572959194,73f45f16a98c6937e1a01c6ec3d5a750,Question2,56,0,Test-All-17-kustle-reshix,NULL,<head><style>div {background-color: #dbd9d9; width: 300px; border: 7px solid #3FB8AF; padding: 20px; margin: 20px;}</style></head><body><center><div><i><font size='4'>17% of the kustles are reshix.</font></i></div></center><h2>All of the kustles are reshix.</h2></body>,False,NULL,4249
1572959194,73f45f16a98c6937e1a01c6ec3d5a750,Question2,111,0,Test-Some-Neg-1-schook-jabant,NULL,<head><style>div {background-color: #dbd9d9; width: 300px; border: 7px solid #3FB8AF; padding: 20px; margin: 20px;}</style></head><body><center><div><i><font size='4'>1% of the schooks are jabant.</font></i></div></center><h2>It is not the case that some of the schooks are jabant.</h2></body>,True,NULL,6538
1572959194,73f45f16a98c6937e1a01c6ec3d5a750,Question2,27,0,Test-Most-34-fleeve-scalfs,NULL,<head><style>div {background-color: #dbd9d9; width: 300px; border: 7px solid #3FB8AF; padding: 20px; margin: 20px;}</style></head><body><center><div><i><font size='4'>34% of the fleeves are scalfs.</font></i></div></center><h2>It is not the case that most of the fleeves are scalfs.</h2></body>,True,NULL,4152
1572959194,73f45f16a98c6937e1a01c6ec3d5a750,Question2,59,0,Test-Some-4-chulk-vulhor,NULL,<head><style>div {background-color: #dbd9d9; width: 300px; border: 7px solid #3FB8AF; padding: 20px; margin: 20px;}</style></head><body><center><div><i><font size='4'>4% of the chulks are vulhor.</font></i></div></center><h2>Some of the chulks are vulhor.</h2></body>,True,NULL,3578
1572959194,73f45f16a98c6937e1a01c6ec3d5a750,Question2,75,0,Test-Some-44-fleeve-scalfs,NULL,<head><style>div {background-color: #dbd9d9; width: 300px; border: 7px solid #3FB8AF; padding: 20px; margin: 20px;}</style></head><body><center><div><i><font size='4'>44% of the fleeves are scalfs.</font></i></div></center><h2>Some of the fleeves are scalfs.</h2></body>,True,NULL,3746
1572959194,73f45f16a98c6937e1a01c6ec3d5a750,Question2,138,0,Test-All-Neg-67-coppar-hunene,NULL,<head><style>div {background-color: #dbd9d9; width: 300px; border: 7px solid #3FB8AF; padding: 20px; margin: 20px;}</style></head><body><center><div><i><font size='4'>67% of the coppars are hunene.</font></i></div></center><h2>It is not the case that all of the coppars are hunene.</h2></body>,False,NULL,4869
1572959194,73f45f16a98c6937e1a01c6ec3d5a750,Question2,58,0,Test-All-16-puggle-entand,NULL,<head><style>div {background-color: #dbd9d9; width: 300px; border: 7px solid #3FB8AF; padding: 20px; margin: 20px;}</style></head><body><center><div><i><font size='4'>16% of the puggles are entand.</font></i></div></center><h2>All of the puggles are entand.</h2></body>,False,NULL,1846
1572959194,73f45f16a98c6937e1a01c6ec3d5a750,Question2,14,0,Test-Most-7-gukbar-soarse,NULL,<head><style>div {background-color: #dbd9d9; width: 300px; border: 7px solid #3FB8AF; padding: 20px; margin: 20px;}</style></head><body><center><div><i><font size='4'>7% of the gukbars are soarse.</font></i></div></center><h2>It is not the case that most of the gukbars are soarse.</h2></body>,True,NULL,2985
1572959194,73f45f16a98c6937e1a01c6ec3d5a750,Question2,148,0,Test-All-Neg-92-chevel-podden,NULL,<head><style>div {background-color: #dbd9d9; width: 300px; border: 7px solid #3FB8AF; padding: 20px; margin: 20px;}</style></head><body><center><div><i><font size='4'>92% of the chevels are podden.</font></i></div></center><h2>It is not the case that all of the chevels are podden.</h2></body>,True,NULL,5680
1572959194,73f45f16a98c6937e1a01c6ec3d5a750,Question2,109,0,Test-Some-Neg-11-gukbar-soarse,NULL,<head><style>div {background-color: #dbd9d9; width: 300px; border: 7px solid #3FB8AF; padding: 20px; margin: 20px;}</style></head><body><center><div><i><font size='4'>11% of the gukbars are soarse.</font></i></div></center><h2>It is not the case that some of the gukbars are soarse.</h2></body>,True,NULL,3763
1572959194,73f45f16a98c6937e1a01c6ec3d5a750,Question2,21,0,Test-Most-28-shamer-bloif,NULL,<head><style>div {background-color: #dbd9d9; width: 300px; border: 7px solid #3FB8AF; padding: 20px; margin: 20px;}</style></head><body><center><div><i><font size='4'>28% of the shamers are bloif.</font></i></div></center><h2>It is not the case that most of the shamers are bloif.</h2></body>,True,NULL,3632
1572959194,73f45f16a98c6937e1a01c6ec3d5a750,Question2,93,0,Test-Some-92-pobbit-spippy,NULL,<head><style>div {background-color: #dbd9d9; width: 300px; border: 7px solid #3FB8AF; padding: 20px; margin: 20px;}</style></head><body><center><div><i><font size='4'>92% of the pobbits are spippy.</font></i></div></center><h2>Some of the pobbits are spippy.</h2></body>,False,NULL,8127
1572959194,73f45f16a98c6937e1a01c6ec3d5a750,Question2,82,0,Test-All-52-umpond-marire,NULL,<head><style>div {background-color: #dbd9d9; width: 300px; border: 7px solid #3FB8AF; padding: 20px; margin: 20px;}</style></head><body><center><div><i><font size='4'>52% of the umponds are marire.</font></i></div></center><h2>All of the umponds are marire.</h2></body>,False,NULL,2842
1572959194,73f45f16a98c6937e1a01c6ec3d5a750,Question2,22,0,Test-Most-37-middor-drooty,NULL,<head><style>div {background-color: #dbd9d9; width: 300px; border: 7px solid #3FB8AF; padding: 20px; margin: 20px;}</style></head><body><center><div><i><font size='4'>37% of the middors are drooty.</font></i></div></center><h2>It is not the case that most of the middors are drooty.</h2></body>,True,NULL,3466
1572959194,73f45f16a98c6937e1a01c6ec3d5a750,Question2,144,0,Test-All-Neg-84-devole-sholly,NULL,<head><style>div {background-color: #dbd9d9; width: 300px; border: 7px solid #3FB8AF; padding: 20px; margin: 20px;}</style></head><body><center><div><i><font size='4'>84% of the devoles are sholly.</font></i></div></center><h2>It is not the case that all of the devoles are sholly.</h2></body>,True,NULL,2097
1572959194,73f45f16a98c6937e1a01c6ec3d5a750,Question2,41,0,Test-Most-68-pliper-sesare,NULL,<head><style>div {background-color: #dbd9d9; width: 300px; border: 7px solid #3FB8AF; padding: 20px; margin: 20px;}</style></head><body><center><div><i><font size='4'>68% of the plipers are sesare.</font></i></div></center><h2>It is not the case that most of the plipers are sesare.</h2></body>,True,NULL,3067
1572959194,73f45f16a98c6937e1a01c6ec3d5a750,Question2,70,0,Test-All-39-shamer-bloif,NULL,<head><style>div {background-color: #dbd9d9; width: 300px; border: 7px solid #3FB8AF; padding: 20px; margin: 20px;}</style></head><body><center><div><i><font size='4'>39% of the shamers are bloif.</font></i></div></center><h2>All of the shamers are bloif.</h2></body>,False,NULL,2585
1572959194,73f45f16a98c6937e1a01c6ec3d5a750,Question2,105,0,Test-Some-Neg-18-chadop-shaple,NULL,<head><style>div {background-color: #dbd9d9; width: 300px; border: 7px solid #3FB8AF; padding: 20px; margin: 20px;}</style></head><body><center><div><i><font size='4'>18% of the chadops are shaple.</font></i></div></center><h2>It is not the case that some of the chadops are shaple.</h2></body>,True,NULL,2819
1572959194,73f45f16a98c6937e1a01c6ec3d5a750,Question2,86,0,Test-All-60-birler-enciad,NULL,<head><style>div {background-color: #dbd9d9; width: 300px; border: 7px solid #3FB8AF; padding: 20px; margin: 20px;}</style></head><body><center><div><i><font size='4'>60% of the birlers are enciad.</font></i></div></center><h2>All of the birlers are enciad.</h2></body>,False,NULL,1657
1572959194,73f45f16a98c6937e1a01c6ec3d5a750,Question2,141,0,Test-Some-Neg-82-padnet-fanely,NULL,<head><style>div {background-color: #dbd9d9; width: 300px; border: 7px solid #3FB8AF; padding: 20px; margin: 20px;}</style></head><body><center><div><i><font size='4'>82% of the padnets are fanely.</font></i></div></center><h2>It is not the case that some of the padnets are fanely.</h2></body>,True,NULL,3122
1572959194,73f45f16a98c6937e1a01c6ec3d5a750,Question2,92,0,Test-All-97-sporer-firtly,NULL,<head><style>div {background-color: #dbd9d9; width: 300px; border: 7px solid #3FB8AF; padding: 20px; margin: 20px;}</style></head><body><center><div><i><font size='4'>97% of the sporers are firtly.</font></i></div></center><h2>All of the sporers are firtly.</h2></body>,False,NULL,2026
1572959194,73f45f16a98c6937e1a01c6ec3d5a750,Question2,28,0,Test-Most-44-tiklet-hullaw,NULL,<head><style>div {background-color: #dbd9d9; width: 300px; border: 7px solid #3FB8AF; padding: 20px; margin: 20px;}</style></head><body><center><div><i><font size='4'>44% of the tiklets are hullaw.</font></i></div></center><h2>It is not the case that most of the tiklets are hullaw.</h2></body>,True,NULL,4715
1572959194,73f45f16a98c6937e1a01c6ec3d5a750,Question2,149,0,Test-Some-Neg-87-ingell-nalill,NULL,<head><style>div {background-color: #dbd9d9; width: 300px; border: 7px solid #3FB8AF; padding: 20px; margin: 20px;}</style></head><body><center><div><i><font size='4'>87% of the ingells are nalill.</font></i></div></center><h2>It is not the case that some of the ingells are nalill.</h2></body>,True,NULL,2051
1572959194,73f45f16a98c6937e1a01c6ec3d5a750,Question2,133,0,Test-Some-Neg-70-raster-movell,NULL,<head><style>div {background-color: #dbd9d9; width: 300px; border: 7px solid #3FB8AF; padding: 20px; margin: 20px;}</style></head><body><center><div><i><font size='4'>70% of the rasters are movell.</font></i></div></center><h2>It is not the case that some of the rasters are movell.</h2></body>,False,NULL,3354
1572959194,73f45f16a98c6937e1a01c6ec3d5a750,Question2,17,0,Test-Most-11-spunge-wenple,NULL,<head><style>div {background-color: #dbd9d9; width: 300px; border: 7px solid #3FB8AF; padding: 20px; margin: 20px;}</style></head><body><center><div><i><font size='4'>11% of the spunges are wenple.</font></i></div></center><h2>It is not the case that most of the spunges are wenple.</h2></body>,False,NULL,4323
1572959194,73f45f16a98c6937e1a01c6ec3d5a750,Question2,29,0,Test-Most-33-shurrie-preser,NULL,<head><style>div {background-color: #dbd9d9; width: 300px; border: 7px solid #3FB8AF; padding: 20px; margin: 20px;}</style></head><body><center><div><i><font size='4'>33% of the shurries are preser.</font></i></div></center><h2>It is not the case that most of the shurries are preser.</h2></body>,True,NULL,1913
1572959194,73f45f16a98c6937e1a01c6ec3d5a750,Question2,91,0,Test-Some-90-sporer-firtly,NULL,<head><style>div {background-color: #dbd9d9; width: 300px; border: 7px solid #3FB8AF; padding: 20px; margin: 20px;}</style></head><body><center><div><i><font size='4'>90% of the sporers are firtly.</font></i></div></center><h2>Some of the sporers are firtly.</h2></body>,False,NULL,2450
1572959194,73f45f16a98c6937e1a01c6ec3d5a750,Question2,139,0,Test-Some-Neg-93-pirter-secent,NULL,<head><style>div {background-color: #dbd9d9; width: 300px; border: 7px solid #3FB8AF; padding: 20px; margin: 20px;}</style></head><body><center><div><i><font size='4'>93% of the pirters are secent.</font></i></div></center><h2>It is not the case that some of the pirters are secent.</h2></body>,True,NULL,5602
1572959194,73f45f16a98c6937e1a01c6ec3d5a750,Question2,38,0,Test-Most-71-raster-movell,NULL,<head><style>div {background-color: #dbd9d9; width: 300px; border: 7px solid #3FB8AF; padding: 20px; margin: 20px;}</style></head><body><center><div><i><font size='4'>71% of the rasters are movell.</font></i></div></center><h2>It is not the case that most of the rasters are movell.</h2></body>,True,NULL,2463
1572959194,73f45f16a98c6937e1a01c6ec3d5a750,Question2,121,0,Test-Some-Neg-31-zetten-unfobs,NULL,<head><style>div {background-color: #dbd9d9; width: 300px; border: 7px solid #3FB8AF; padding: 20px; margin: 20px;}</style></head><body><center><div><i><font size='4'>31% of the zettens are unfobs.</font></i></div></center><h2>It is not the case that some of the zettens are unfobs.</h2></body>,True,NULL,2665
1572959194,73f45f16a98c6937e1a01c6ec3d5a750,Question2,123,0,Test-Some-Neg-35-tiklet-hullaw,NULL,<head><style>div {background-color: #dbd9d9; width: 300px; border: 7px solid #3FB8AF; padding: 20px; margin: 20px;}</style></head><body><center><div><i><font size='4'>35% of the tiklets are hullaw.</font></i></div></center><h2>It is not the case that some of the tiklets are hullaw.</h2></body>,True,NULL,2812
1572959194,73f45f16a98c6937e1a01c6ec3d5a750,Question2,101,0,Test-Some-80-awplor-fasees,NULL,<head><style>div {background-color: #dbd9d9; width: 300px; border: 7px solid #3FB8AF; padding: 20px; margin: 20px;}</style></head><body><center><div><i><font size='4'>80% of the awplors are fasees.</font></i></div></center><h2>Some of the awplors are fasees.</h2></body>,True,NULL,2821
1572959194,73f45f16a98c6937e1a01c6ec3d5a750,Question2,85,0,Test-Some-68-birler-enciad,NULL,<head><style>div {background-color: #dbd9d9; width: 300px; border: 7px solid #3FB8AF; padding: 20px; margin: 20px;}</style></head><body><center><div><i><font size='4'>68% of the birlers are enciad.</font></i></div></center><h2>Some of the birlers are enciad.</h2></body>,True,NULL,2506
1572959194,73f45f16a98c6937e1a01c6ec3d5a750,Question2,24,0,Test-Most-30-pengyl-sedest,NULL,<head><style>div {background-color: #dbd9d9; width: 300px; border: 7px solid #3FB8AF; padding: 20px; margin: 20px;}</style></head><body><center><div><i><font size='4'>30% of the pengyls are sedest.</font></i></div></center><h2>It is not the case that most of the pengyls are sedest.</h2></body>,False,NULL,3025
1572959194,73f45f16a98c6937e1a01c6ec3d5a750,Question2,18,0,Test-Most-9-shrile-athoid,NULL,<head><style>div {background-color: #dbd9d9; width: 300px; border: 7px solid #3FB8AF; padding: 20px; margin: 20px;}</style></head><body><center><div><i><font size='4'>9% of the shriles are athoid.</font></i></div></center><h2>It is not the case that most of the shriles are athoid.</h2></body>,False,NULL,3076
1572959194,73f45f16a98c6937e1a01c6ec3d5a750,Question2,88,0,Test-All-69-menner-nandow,NULL,<head><style>div {background-color: #dbd9d9; width: 300px; border: 7px solid #3FB8AF; padding: 20px; margin: 20px;}</style></head><body><center><div><i><font size='4'>69% of the menners are nandow.</font></i></div></center><h2>All of the menners are nandow.</h2></body>,False,NULL,1607
1572959194,73f45f16a98c6937e1a01c6ec3d5a750,Question2,103,0,Test-Some-Neg-21-beckel-racual,NULL,<head><style>div {background-color: #dbd9d9; width: 300px; border: 7px solid #3FB8AF; padding: 20px; margin: 20px;}</style></head><body><center><div><i><font size='4'>21% of the beckels are racual.</font></i></div></center><h2>It is not the case that some of the beckels are racual.</h2></body>,True,NULL,3371
1572959194,73f45f16a98c6937e1a01c6ec3d5a750,Question2,34,0,Test-Most-61-russer-huttle,NULL,<head><style>div {background-color: #dbd9d9; width: 300px; border: 7px solid #3FB8AF; padding: 20px; margin: 20px;}</style></head><body><center><div><i><font size='4'>61% of the russers are huttle.</font></i></div></center><h2>It is not the case that most of the russers are huttle.</h2></body>,True,NULL,1810
1572959194,73f45f16a98c6937e1a01c6ec3d5a750,Question2,49,0,Test-Most-88-jallem-sildal,NULL,<head><style>div {background-color: #dbd9d9; width: 300px; border: 7px solid #3FB8AF; padding: 20px; margin: 20px;}</style></head><body><center><div><i><font size='4'>88% of the jallems are sildal.</font></i></div></center><h2>It is not the case that most of the jallems are sildal.</h2></body>,False,NULL,3961
1572959194,73f45f16a98c6937e1a01c6ec3d5a750,Question2,23,0,Test-Most-46-ancit-smeath,NULL,<head><style>div {background-color: #dbd9d9; width: 300px; border: 7px solid #3FB8AF; padding: 20px; margin: 20px;}</style></head><body><center><div><i><font size='4'>46% of the ancits are smeath.</font></i></div></center><h2>It is not the case that most of the ancits are smeath.</h2></body>,True,NULL,2307
1572959194,73f45f16a98c6937e1a01c6ec3d5a750,Question2,124,0,Test-All-Neg-37-tiklet-hullaw,NULL,<head><style>div {background-color: #dbd9d9; width: 300px; border: 7px solid #3FB8AF; padding: 20px; margin: 20px;}</style></head><body><center><div><i><font size='4'>37% of the tiklets are hullaw.</font></i></div></center><h2>It is not the case that all of the tiklets are hullaw.</h2></body>,False,NULL,3387
1572959194,73f45f16a98c6937e1a01c6ec3d5a750,Question2,134,0,Test-All-Neg-74-raster-movell,NULL,<head><style>div {background-color: #dbd9d9; width: 300px; border: 7px solid #3FB8AF; padding: 20px; margin: 20px;}</style></head><body><center><div><i><font size='4'>74% of the rasters are movell.</font></i></div></center><h2>It is not the case that all of the rasters are movell.</h2></body>,True,NULL,1451
1572959194,73f45f16a98c6937e1a01c6ec3d5a750,Question2,61,0,Test-Some-15-mecket-plumry,NULL,<head><style>div {background-color: #dbd9d9; width: 300px; border: 7px solid #3FB8AF; padding: 20px; margin: 20px;}</style></head><body><center><div><i><font size='4'>15% of the meckets are plumry.</font></i></div></center><h2>Some of the meckets are plumry.</h2></body>,True,NULL,4691
1572959194,73f45f16a98c6937e1a01c6ec3d5a750,Question2,89,0,Test-Some-62-pliper-sesare,NULL,<head><style>div {background-color: #dbd9d9; width: 300px; border: 7px solid #3FB8AF; padding: 20px; margin: 20px;}</style></head><body><center><div><i><font size='4'>62% of the plipers are sesare.</font></i></div></center><h2>Some of the plipers are sesare.</h2></body>,True,NULL,1963
1572959194,73f45f16a98c6937e1a01c6ec3d5a750,Question2,122,0,Test-All-Neg-28-zetten-unfobs,NULL,<head><style>div {background-color: #dbd9d9; width: 300px; border: 7px solid #3FB8AF; padding: 20px; margin: 20px;}</style></head><body><center><div><i><font size='4'>28% of the zettens are unfobs.</font></i></div></center><h2>It is not the case that all of the zettens are unfobs.</h2></body>,False,NULL,2483
1572959194,73f45f16a98c6937e1a01c6ec3d5a750,Question2,16,0,Test-Most-4-schook-jabant,NULL,<head><style>div {background-color: #dbd9d9; width: 300px; border: 7px solid #3FB8AF; padding: 20px; margin: 20px;}</style></head><body><center><div><i><font size='4'>4% of the schooks are jabant.</font></i></div></center><h2>It is not the case that most of the schooks are jabant.</h2></body>,False,NULL,6226
1572959194,73f45f16a98c6937e1a01c6ec3d5a750,Question2,136,0,Test-All-Neg-59-bamet-unzast,NULL,<head><style>div {background-color: #dbd9d9; width: 300px; border: 7px solid #3FB8AF; padding: 20px; margin: 20px;}</style></head><body><center><div><i><font size='4'>59% of the bamets are unzast.</font></i></div></center><h2>It is not the case that all of the bamets are unzast.</h2></body>,True,NULL,2523
1572959194,73f45f16a98c6937e1a01c6ec3d5a750,Question2,44,0,Test-Most-77-pirter-secent,NULL,<head><style>div {background-color: #dbd9d9; width: 300px; border: 7px solid #3FB8AF; padding: 20px; margin: 20px;}</style></head><body><center><div><i><font size='4'>77% of the pirters are secent.</font></i></div></center><h2>It is not the case that most of the pirters are secent.</h2></body>,True,NULL,5435
