#
# Results on Tuesday November 05 2019 10:26:04 UTC.
# USER AGENT: Mozilla/5.0 (iPhone; CPU iPhone OS 10_3_3 like Mac OS X) AppleWebKit/603.3.8 (KHTML, like Gecko) Version/10.0 Mobile/14G60 Safari/602.1
# Design number was non-random = 1
#
# Columns below this comment are as follows:
# 1. Time results were received.
# 2. MD5 hash of participant's IP address.
# 3. Controller name.
# 4. Item number.
# 5. Element number.
# 6. Type.
# 7. Group.
# 8. Field name.
# 9. Field value.
1572949564,b8e304025264d14fbdd864801f0d0385,NewForm,0,0,agreement,NULL,,yes
1572949564,b8e304025264d14fbdd864801f0d0385,NewForm,0,0,agreement,NULL,_REACTION_TIME_,18213
1572949564,b8e304025264d14fbdd864801f0d0385,NewForm,1,0,instructions1,NULL,,yes
1572949564,b8e304025264d14fbdd864801f0d0385,NewForm,1,0,instructions1,NULL,_REACTION_TIME_,15134
# Columns below this comment are as follows:
# 1. Time results were received.
# 2. MD5 hash of participant's IP address.
# 3. Controller name.
# 4. Item number.
# 5. Element number.
# 6. Type.
# 7. Group.
# 8. Question (NULL if none).
# 9. Answer.
# 10. Whether or not answer was correct (NULL if N/A).
# 11. Time taken to answer.
1572949564,b8e304025264d14fbdd864801f0d0385,Question2,5,0,practice-some,NULL,<head><style>div {background-color: #dbd9d9; width: 300px; border: 7px solid #3FB8AF; padding: 20px; margin: 20px;}</style></head><body><div><i><font size='4'> 20% of the glerbs are fizda.</font></i></div><h2>Some of the glerbs are fizda.</h2></body>,True,NULL,7619
1572949564,b8e304025264d14fbdd864801f0d0385,Question2,6,0,practice-all,NULL,<head><style>div {background-color: #dbd9d9; width: 300px; border: 7px solid #3FB8AF; padding: 20px; margin: 20px;}</style></head><body><div><i><font size='4'> 82% of the thonks are crangly.</font></i></div><h2>All of the thonks are crangly.</h2></body>,False,NULL,2440
1572949564,b8e304025264d14fbdd864801f0d0385,Question2,75,0,Test-Some-44-fleeve-scalfs,NULL,<head><style>div {background-color: #dbd9d9; width: 300px; border: 7px solid #3FB8AF; padding: 20px; margin: 20px;}</style></head><body><center><div><i><font size='4'>44% of the fleeves are scalfs.</font></i></div></center><h2>Some of the fleeves are scalfs.</h2></body>,True,NULL,7402
1572949564,b8e304025264d14fbdd864801f0d0385,Question2,51,0,Test-Most-93-puctor-recure,NULL,<head><style>div {background-color: #dbd9d9; width: 300px; border: 7px solid #3FB8AF; padding: 20px; margin: 20px;}</style></head><body><center><div><i><font size='4'>93% of the puctors are recure.</font></i></div></center><h2>Most of the puctors are recure.</h2></body>,False,NULL,4371
1572949564,b8e304025264d14fbdd864801f0d0385,Question2,135,0,Test-Some-Neg-69-bamet-unzast,NULL,<head><style>div {background-color: #dbd9d9; width: 300px; border: 7px solid #3FB8AF; padding: 20px; margin: 20px;}</style></head><body><center><div><i><font size='4'>69% of the bamets are unzast.</font></i></div></center><h2>It is not the case that some of the bamets are unzast.</h2></body>,True,NULL,3335
1572949564,b8e304025264d14fbdd864801f0d0385,Question2,44,0,Test-Most-77-pirter-secent,NULL,<head><style>div {background-color: #dbd9d9; width: 300px; border: 7px solid #3FB8AF; padding: 20px; margin: 20px;}</style></head><body><center><div><i><font size='4'>77% of the pirters are secent.</font></i></div></center><h2>Most of the pirters are secent.</h2></body>,False,NULL,2567
1572949564,b8e304025264d14fbdd864801f0d0385,Question2,114,0,Test-All-Neg-3-shrile-athoid,NULL,<head><style>div {background-color: #dbd9d9; width: 300px; border: 7px solid #3FB8AF; padding: 20px; margin: 20px;}</style></head><body><center><div><i><font size='4'>3% of the shriles are athoid.</font></i></div></center><h2>It is not the case that all of the shriles are athoid.</h2></body>,True,NULL,2105
1572949564,b8e304025264d14fbdd864801f0d0385,Question2,130,0,Test-All-Neg-61-russer-huttle,NULL,<head><style>div {background-color: #dbd9d9; width: 300px; border: 7px solid #3FB8AF; padding: 20px; margin: 20px;}</style></head><body><center><div><i><font size='4'>61% of the russers are huttle.</font></i></div></center><h2>It is not the case that all of the russers are huttle.</h2></body>,False,NULL,2323
1572949564,b8e304025264d14fbdd864801f0d0385,Question2,93,0,Test-Some-92-pobbit-spippy,NULL,<head><style>div {background-color: #dbd9d9; width: 300px; border: 7px solid #3FB8AF; padding: 20px; margin: 20px;}</style></head><body><center><div><i><font size='4'>92% of the pobbits are spippy.</font></i></div></center><h2>Some of the pobbits are spippy.</h2></body>,True,NULL,2137
1572949564,b8e304025264d14fbdd864801f0d0385,Question2,43,0,Test-Most-92-sporer-firtly,NULL,<head><style>div {background-color: #dbd9d9; width: 300px; border: 7px solid #3FB8AF; padding: 20px; margin: 20px;}</style></head><body><center><div><i><font size='4'>92% of the sporers are firtly.</font></i></div></center><h2>Most of the sporers are firtly.</h2></body>,False,NULL,1564
1572949564,b8e304025264d14fbdd864801f0d0385,Question2,141,0,Test-Some-Neg-82-padnet-fanely,NULL,<head><style>div {background-color: #dbd9d9; width: 300px; border: 7px solid #3FB8AF; padding: 20px; margin: 20px;}</style></head><body><center><div><i><font size='4'>82% of the padnets are fanely.</font></i></div></center><h2>It is not the case that some of the padnets are fanely.</h2></body>,True,NULL,1663
1572949564,b8e304025264d14fbdd864801f0d0385,Question2,30,0,Test-Most-38-monter-melelt,NULL,<head><style>div {background-color: #dbd9d9; width: 300px; border: 7px solid #3FB8AF; padding: 20px; margin: 20px;}</style></head><body><center><div><i><font size='4'>38% of the monters are melelt.</font></i></div></center><h2>Most of the monters are melelt.</h2></body>,False,NULL,1741
1572949564,b8e304025264d14fbdd864801f0d0385,Question2,16,0,Test-Most-4-schook-jabant,NULL,<head><style>div {background-color: #dbd9d9; width: 300px; border: 7px solid #3FB8AF; padding: 20px; margin: 20px;}</style></head><body><center><div><i><font size='4'>4% of the schooks are jabant.</font></i></div></center><h2>Most of the schooks are jabant.</h2></body>,True,NULL,1594
1572949564,b8e304025264d14fbdd864801f0d0385,Question2,110,0,Test-All-Neg-0-gukbar-soarse,NULL,<head><style>div {background-color: #dbd9d9; width: 300px; border: 7px solid #3FB8AF; padding: 20px; margin: 20px;}</style></head><body><center><div><i><font size='4'>0% of the gukbars are soarse.</font></i></div></center><h2>It is not the case that all of the gukbars are soarse.</h2></body>,False,NULL,1693
1572949564,b8e304025264d14fbdd864801f0d0385,Question2,24,0,Test-Most-30-pengyl-sedest,NULL,<head><style>div {background-color: #dbd9d9; width: 300px; border: 7px solid #3FB8AF; padding: 20px; margin: 20px;}</style></head><body><center><div><i><font size='4'>30% of the pengyls are sedest.</font></i></div></center><h2>Most of the pengyls are sedest.</h2></body>,True,NULL,1359
1572949564,b8e304025264d14fbdd864801f0d0385,Question2,38,0,Test-Most-71-raster-movell,NULL,<head><style>div {background-color: #dbd9d9; width: 300px; border: 7px solid #3FB8AF; padding: 20px; margin: 20px;}</style></head><body><center><div><i><font size='4'>71% of the rasters are movell.</font></i></div></center><h2>Most of the rasters are movell.</h2></body>,False,NULL,3574
1572949564,b8e304025264d14fbdd864801f0d0385,Question2,122,0,Test-All-Neg-28-zetten-unfobs,NULL,<head><style>div {background-color: #dbd9d9; width: 300px; border: 7px solid #3FB8AF; padding: 20px; margin: 20px;}</style></head><body><center><div><i><font size='4'>28% of the zettens are unfobs.</font></i></div></center><h2>It is not the case that all of the zettens are unfobs.</h2></body>,True,NULL,1655
1572949564,b8e304025264d14fbdd864801f0d0385,Question2,90,0,Test-All-70-pliper-sesare,NULL,<head><style>div {background-color: #dbd9d9; width: 300px; border: 7px solid #3FB8AF; padding: 20px; margin: 20px;}</style></head><body><center><div><i><font size='4'>70% of the plipers are sesare.</font></i></div></center><h2>All of the plipers are sesare.</h2></body>,False,NULL,1575
1572949564,b8e304025264d14fbdd864801f0d0385,Question2,71,0,Test-Some-32-ancit-smeath,NULL,<head><style>div {background-color: #dbd9d9; width: 300px; border: 7px solid #3FB8AF; padding: 20px; margin: 20px;}</style></head><body><center><div><i><font size='4'>32% of the ancits are smeath.</font></i></div></center><h2>Some of the ancits are smeath.</h2></body>,True,NULL,2758
1572949564,b8e304025264d14fbdd864801f0d0385,Question2,105,0,Test-Some-Neg-18-chadop-shaple,NULL,<head><style>div {background-color: #dbd9d9; width: 300px; border: 7px solid #3FB8AF; padding: 20px; margin: 20px;}</style></head><body><center><div><i><font size='4'>18% of the chadops are shaple.</font></i></div></center><h2>It is not the case that some of the chadops are shaple.</h2></body>,True,NULL,2293
1572949564,b8e304025264d14fbdd864801f0d0385,Question2,121,0,Test-Some-Neg-31-zetten-unfobs,NULL,<head><style>div {background-color: #dbd9d9; width: 300px; border: 7px solid #3FB8AF; padding: 20px; margin: 20px;}</style></head><body><center><div><i><font size='4'>31% of the zettens are unfobs.</font></i></div></center><h2>It is not the case that some of the zettens are unfobs.</h2></body>,True,NULL,2694
1572949564,b8e304025264d14fbdd864801f0d0385,Question2,29,0,Test-Most-33-shurrie-preser,NULL,<head><style>div {background-color: #dbd9d9; width: 300px; border: 7px solid #3FB8AF; padding: 20px; margin: 20px;}</style></head><body><center><div><i><font size='4'>33% of the shurries are preser.</font></i></div></center><h2>Most of the shurries are preser.</h2></body>,True,NULL,1555
1572949564,b8e304025264d14fbdd864801f0d0385,Question2,96,0,Test-All-77-boddle-molill,NULL,<head><style>div {background-color: #dbd9d9; width: 300px; border: 7px solid #3FB8AF; padding: 20px; margin: 20px;}</style></head><body><center><div><i><font size='4'>77% of the boddles are molill.</font></i></div></center><h2>All of the boddles are molill.</h2></body>,False,NULL,1966
1572949564,b8e304025264d14fbdd864801f0d0385,Question2,131,0,Test-Some-Neg-64-tecker-biller,NULL,<head><style>div {background-color: #dbd9d9; width: 300px; border: 7px solid #3FB8AF; padding: 20px; margin: 20px;}</style></head><body><center><div><i><font size='4'>64% of the teckers are biller.</font></i></div></center><h2>It is not the case that some of the teckers are biller.</h2></body>,False,NULL,1920
1572949564,b8e304025264d14fbdd864801f0d0385,Question2,101,0,Test-Some-80-awplor-fasees,NULL,<head><style>div {background-color: #dbd9d9; width: 300px; border: 7px solid #3FB8AF; padding: 20px; margin: 20px;}</style></head><body><center><div><i><font size='4'>80% of the awplors are fasees.</font></i></div></center><h2>Some of the awplors are fasees.</h2></body>,False,NULL,1658
1572949564,b8e304025264d14fbdd864801f0d0385,Question2,99,0,Test-Some-100-puctor-recure,NULL,<head><style>div {background-color: #dbd9d9; width: 300px; border: 7px solid #3FB8AF; padding: 20px; margin: 20px;}</style></head><body><center><div><i><font size='4'>100% of the puctors are recure.</font></i></div></center><h2>Some of the puctors are recure.</h2></body>,False,NULL,1693
1572949564,b8e304025264d14fbdd864801f0d0385,Question2,142,0,Test-All-Neg-89-padnet-fanely,NULL,<head><style>div {background-color: #dbd9d9; width: 300px; border: 7px solid #3FB8AF; padding: 20px; margin: 20px;}</style></head><body><center><div><i><font size='4'>89% of the padnets are fanely.</font></i></div></center><h2>It is not the case that all of the padnets are fanely.</h2></body>,False,NULL,1941
1572949564,b8e304025264d14fbdd864801f0d0385,Question2,107,0,Test-Some-Neg-24-werner-hurmer,NULL,<head><style>div {background-color: #dbd9d9; width: 300px; border: 7px solid #3FB8AF; padding: 20px; margin: 20px;}</style></head><body><center><div><i><font size='4'>24% of the werners are hurmer.</font></i></div></center><h2>It is not the case that some of the werners are hurmer.</h2></body>,True,NULL,1910
1572949564,b8e304025264d14fbdd864801f0d0385,Question2,143,0,Test-Some-Neg-79-devole-sholly,NULL,<head><style>div {background-color: #dbd9d9; width: 300px; border: 7px solid #3FB8AF; padding: 20px; margin: 20px;}</style></head><body><center><div><i><font size='4'>79% of the devoles are sholly.</font></i></div></center><h2>It is not the case that some of the devoles are sholly.</h2></body>,False,NULL,1641
1572949564,b8e304025264d14fbdd864801f0d0385,Question2,82,0,Test-All-52-umpond-marire,NULL,<head><style>div {background-color: #dbd9d9; width: 300px; border: 7px solid #3FB8AF; padding: 20px; margin: 20px;}</style></head><body><center><div><i><font size='4'>52% of the umponds are marire.</font></i></div></center><h2>All of the umponds are marire.</h2></body>,True,NULL,2642
1572949564,b8e304025264d14fbdd864801f0d0385,Question2,119,0,Test-Some-Neg-37-pengyl-sedest,NULL,<head><style>div {background-color: #dbd9d9; width: 300px; border: 7px solid #3FB8AF; padding: 20px; margin: 20px;}</style></head><body><center><div><i><font size='4'>37% of the pengyls are sedest.</font></i></div></center><h2>It is not the case that some of the pengyls are sedest.</h2></body>,True,NULL,2476
1572949564,b8e304025264d14fbdd864801f0d0385,Question2,48,0,Test-Most-86-devole-sholly,NULL,<head><style>div {background-color: #dbd9d9; width: 300px; border: 7px solid #3FB8AF; padding: 20px; margin: 20px;}</style></head><body><center><div><i><font size='4'>86% of the devoles are sholly.</font></i></div></center><h2>Most of the devoles are sholly.</h2></body>,False,NULL,1658
1572949564,b8e304025264d14fbdd864801f0d0385,Question2,15,0,Test-Most-17-clidge-hensly,NULL,<head><style>div {background-color: #dbd9d9; width: 300px; border: 7px solid #3FB8AF; padding: 20px; margin: 20px;}</style></head><body><center><div><i><font size='4'>17% of the clidges are hensly.</font></i></div></center><h2>Most of the clidges are hensly.</h2></body>,True,NULL,1594
1572949564,b8e304025264d14fbdd864801f0d0385,Question2,70,0,Test-All-39-shamer-bloif,NULL,<head><style>div {background-color: #dbd9d9; width: 300px; border: 7px solid #3FB8AF; padding: 20px; margin: 20px;}</style></head><body><center><div><i><font size='4'>39% of the shamers are bloif.</font></i></div></center><h2>All of the shamers are bloif.</h2></body>,True,NULL,1817
1572949564,b8e304025264d14fbdd864801f0d0385,Question2,134,0,Test-All-Neg-74-raster-movell,NULL,<head><style>div {background-color: #dbd9d9; width: 300px; border: 7px solid #3FB8AF; padding: 20px; margin: 20px;}</style></head><body><center><div><i><font size='4'>74% of the rasters are movell.</font></i></div></center><h2>It is not the case that all of the rasters are movell.</h2></body>,False,NULL,1509
1572949564,b8e304025264d14fbdd864801f0d0385,Question2,22,0,Test-Most-37-middor-drooty,NULL,<head><style>div {background-color: #dbd9d9; width: 300px; border: 7px solid #3FB8AF; padding: 20px; margin: 20px;}</style></head><body><center><div><i><font size='4'>37% of the middors are drooty.</font></i></div></center><h2>Most of the middors are drooty.</h2></body>,True,NULL,1676
1572949564,b8e304025264d14fbdd864801f0d0385,Question2,129,0,Test-Some-Neg-58-russer-huttle,NULL,<head><style>div {background-color: #dbd9d9; width: 300px; border: 7px solid #3FB8AF; padding: 20px; margin: 20px;}</style></head><body><center><div><i><font size='4'>58% of the russers are huttle.</font></i></div></center><h2>It is not the case that some of the russers are huttle.</h2></body>,False,NULL,2090
1572949564,b8e304025264d14fbdd864801f0d0385,Question2,116,0,Test-All-Neg-29-coamin-mucond,NULL,<head><style>div {background-color: #dbd9d9; width: 300px; border: 7px solid #3FB8AF; padding: 20px; margin: 20px;}</style></head><body><center><div><i><font size='4'>29% of the coamins are mucond.</font></i></div></center><h2>It is not the case that all of the coamins are mucond.</h2></body>,True,NULL,1644
1572949564,b8e304025264d14fbdd864801f0d0385,Question2,18,0,Test-Most-9-shrile-athoid,NULL,<head><style>div {background-color: #dbd9d9; width: 300px; border: 7px solid #3FB8AF; padding: 20px; margin: 20px;}</style></head><body><center><div><i><font size='4'>9% of the shriles are athoid.</font></i></div></center><h2>Most of the shriles are athoid.</h2></body>,True,NULL,1651
1572949564,b8e304025264d14fbdd864801f0d0385,Question2,67,0,Test-Some-43-cosut-spover,NULL,<head><style>div {background-color: #dbd9d9; width: 300px; border: 7px solid #3FB8AF; padding: 20px; margin: 20px;}</style></head><body><center><div><i><font size='4'>43% of the cosuts are spover.</font></i></div></center><h2>Some of the cosuts are spover.</h2></body>,True,NULL,1973
1572949564,b8e304025264d14fbdd864801f0d0385,Question2,66,0,Test-All-2-spunge-wenple,NULL,<head><style>div {background-color: #dbd9d9; width: 300px; border: 7px solid #3FB8AF; padding: 20px; margin: 20px;}</style></head><body><center><div><i><font size='4'>2% of the spunges are wenple.</font></i></div></center><h2>All of the spunges are wenple.</h2></body>,True,NULL,1638
1572949564,b8e304025264d14fbdd864801f0d0385,Question2,59,0,Test-Some-4-chulk-vulhor,NULL,<head><style>div {background-color: #dbd9d9; width: 300px; border: 7px solid #3FB8AF; padding: 20px; margin: 20px;}</style></head><body><center><div><i><font size='4'>4% of the chulks are vulhor.</font></i></div></center><h2>Some of the chulks are vulhor.</h2></body>,True,NULL,1595
1572949564,b8e304025264d14fbdd864801f0d0385,Question2,126,0,Test-All-Neg-44-monter-melelt,NULL,<head><style>div {background-color: #dbd9d9; width: 300px; border: 7px solid #3FB8AF; padding: 20px; margin: 20px;}</style></head><body><center><div><i><font size='4'>44% of the monters are melelt.</font></i></div></center><h2>It is not the case that all of the monters are melelt.</h2></body>,True,NULL,2089
1572949564,b8e304025264d14fbdd864801f0d0385,Question2,7,0,Test-Most-3-kustle-reshix,NULL,<head><style>div {background-color: #dbd9d9; width: 300px; border: 7px solid #3FB8AF; padding: 20px; margin: 20px;}</style></head><body><center><div><i><font size='4'>3% of the kustles are reshix.</font></i></div></center><h2>Most of the kustles are reshix.</h2></body>,True,NULL,1857
1572949564,b8e304025264d14fbdd864801f0d0385,Question2,133,0,Test-Some-Neg-70-raster-movell,NULL,<head><style>div {background-color: #dbd9d9; width: 300px; border: 7px solid #3FB8AF; padding: 20px; margin: 20px;}</style></head><body><center><div><i><font size='4'>70% of the rasters are movell.</font></i></div></center><h2>It is not the case that some of the rasters are movell.</h2></body>,False,NULL,1444
1572949564,b8e304025264d14fbdd864801f0d0385,Question2,9,0,Test-Most-12-puggle-entand,NULL,<head><style>div {background-color: #dbd9d9; width: 300px; border: 7px solid #3FB8AF; padding: 20px; margin: 20px;}</style></head><body><center><div><i><font size='4'>12% of the puggles are entand.</font></i></div></center><h2>Most of the puggles are entand.</h2></body>,True,NULL,1724
1572949564,b8e304025264d14fbdd864801f0d0385,Question2,115,0,Test-Some-Neg-29-coamin-mucond,NULL,<head><style>div {background-color: #dbd9d9; width: 300px; border: 7px solid #3FB8AF; padding: 20px; margin: 20px;}</style></head><body><center><div><i><font size='4'>29% of the coamins are mucond.</font></i></div></center><h2>It is not the case that some of the coamins are mucond.</h2></body>,True,NULL,1603
1572949564,b8e304025264d14fbdd864801f0d0385,Question2,61,0,Test-Some-15-mecket-plumry,NULL,<head><style>div {background-color: #dbd9d9; width: 300px; border: 7px solid #3FB8AF; padding: 20px; margin: 20px;}</style></head><body><center><div><i><font size='4'>15% of the meckets are plumry.</font></i></div></center><h2>Some of the meckets are plumry.</h2></body>,True,NULL,1709
1572949564,b8e304025264d14fbdd864801f0d0385,Question2,63,0,Test-Some-13-clidge-hensly,NULL,<head><style>div {background-color: #dbd9d9; width: 300px; border: 7px solid #3FB8AF; padding: 20px; margin: 20px;}</style></head><body><center><div><i><font size='4'>13% of the clidges are hensly.</font></i></div></center><h2>Some of the clidges are hensly.</h2></body>,True,NULL,2011
1572949564,b8e304025264d14fbdd864801f0d0385,Question2,148,0,Test-All-Neg-92-chevel-podden,NULL,<head><style>div {background-color: #dbd9d9; width: 300px; border: 7px solid #3FB8AF; padding: 20px; margin: 20px;}</style></head><body><center><div><i><font size='4'>92% of the chevels are podden.</font></i></div></center><h2>It is not the case that all of the chevels are podden.</h2></body>,False,NULL,1575
1572949564,b8e304025264d14fbdd864801f0d0385,Question2,40,0,Test-Most-52-bamet-unzast,NULL,<head><style>div {background-color: #dbd9d9; width: 300px; border: 7px solid #3FB8AF; padding: 20px; margin: 20px;}</style></head><body><center><div><i><font size='4'>52% of the bamets are unzast.</font></i></div></center><h2>Most of the bamets are unzast.</h2></body>,False,NULL,2410
1572949564,b8e304025264d14fbdd864801f0d0385,Question2,83,0,Test-Some-71-cather-funder,NULL,<head><style>div {background-color: #dbd9d9; width: 300px; border: 7px solid #3FB8AF; padding: 20px; margin: 20px;}</style></head><body><center><div><i><font size='4'>71% of the cathers are funder.</font></i></div></center><h2>Some of the cathers are funder.</h2></body>,False,NULL,2012
1572949564,b8e304025264d14fbdd864801f0d0385,Question2,65,0,Test-Some-3-spunge-wenple,NULL,<head><style>div {background-color: #dbd9d9; width: 300px; border: 7px solid #3FB8AF; padding: 20px; margin: 20px;}</style></head><body><center><div><i><font size='4'>3% of the spunges are wenple.</font></i></div></center><h2>Some of the spunges are wenple.</h2></body>,True,NULL,1626
1572949564,b8e304025264d14fbdd864801f0d0385,Question2,125,0,Test-Some-Neg-28-monter-melelt,NULL,<head><style>div {background-color: #dbd9d9; width: 300px; border: 7px solid #3FB8AF; padding: 20px; margin: 20px;}</style></head><body><center><div><i><font size='4'>28% of the monters are melelt.</font></i></div></center><h2>It is not the case that some of the monters are melelt.</h2></body>,True,NULL,1529
1572949564,b8e304025264d14fbdd864801f0d0385,Question2,118,0,Test-All-Neg-38-middor-drooty,NULL,<head><style>div {background-color: #dbd9d9; width: 300px; border: 7px solid #3FB8AF; padding: 20px; margin: 20px;}</style></head><body><center><div><i><font size='4'>38% of the middors are drooty.</font></i></div></center><h2>It is not the case that all of the middors are drooty.</h2></body>,True,NULL,1545
1572949564,b8e304025264d14fbdd864801f0d0385,Question2,60,0,Test-All-21-chulk-vulhor,NULL,<head><style>div {background-color: #dbd9d9; width: 300px; border: 7px solid #3FB8AF; padding: 20px; margin: 20px;}</style></head><body><center><div><i><font size='4'>21% of the chulks are vulhor.</font></i></div></center><h2>All of the chulks are vulhor.</h2></body>,True,NULL,1455
1572949564,b8e304025264d14fbdd864801f0d0385,Question2,39,0,Test-Most-66-menner-nandow,NULL,<head><style>div {background-color: #dbd9d9; width: 300px; border: 7px solid #3FB8AF; padding: 20px; margin: 20px;}</style></head><body><center><div><i><font size='4'>66% of the menners are nandow.</font></i></div></center><h2>Most of the menners are nandow.</h2></body>,False,NULL,1727
1572949564,b8e304025264d14fbdd864801f0d0385,Question2,104,0,Test-All-Neg-11-beckel-racual,NULL,<head><style>div {background-color: #dbd9d9; width: 300px; border: 7px solid #3FB8AF; padding: 20px; margin: 20px;}</style></head><body><center><div><i><font size='4'>11% of the beckels are racual.</font></i></div></center><h2>It is not the case that all of the beckels are racual.</h2></body>,True,NULL,1693
1572949564,b8e304025264d14fbdd864801f0d0385,Question2,32,0,Test-Most-59-pluset-stubad,NULL,<head><style>div {background-color: #dbd9d9; width: 300px; border: 7px solid #3FB8AF; padding: 20px; margin: 20px;}</style></head><body><center><div><i><font size='4'>59% of the plusets are stubad.</font></i></div></center><h2>Most of the plusets are stubad.</h2></body>,False,NULL,1671
1572949564,b8e304025264d14fbdd864801f0d0385,Question2,123,0,Test-Some-Neg-35-tiklet-hullaw,NULL,<head><style>div {background-color: #dbd9d9; width: 300px; border: 7px solid #3FB8AF; padding: 20px; margin: 20px;}</style></head><body><center><div><i><font size='4'>35% of the tiklets are hullaw.</font></i></div></center><h2>It is not the case that some of the tiklets are hullaw.</h2></body>,True,NULL,1809
1572949564,b8e304025264d14fbdd864801f0d0385,Question2,145,0,Test-Some-Neg-77-dorder-coggon,NULL,<head><style>div {background-color: #dbd9d9; width: 300px; border: 7px solid #3FB8AF; padding: 20px; margin: 20px;}</style></head><body><center><div><i><font size='4'>77% of the dorders are coggon.</font></i></div></center><h2>It is not the case that some of the dorders are coggon.</h2></body>,False,NULL,1621
1572949564,b8e304025264d14fbdd864801f0d0385,Question2,58,0,Test-All-16-puggle-entand,NULL,<head><style>div {background-color: #dbd9d9; width: 300px; border: 7px solid #3FB8AF; padding: 20px; margin: 20px;}</style></head><body><center><div><i><font size='4'>16% of the puggles are entand.</font></i></div></center><h2>All of the puggles are entand.</h2></body>,True,NULL,1695
1572949564,b8e304025264d14fbdd864801f0d0385,Question2,106,0,Test-All-Neg-9-chadop-shaple,NULL,<head><style>div {background-color: #dbd9d9; width: 300px; border: 7px solid #3FB8AF; padding: 20px; margin: 20px;}</style></head><body><center><div><i><font size='4'>9% of the chadops are shaple.</font></i></div></center><h2>It is not the case that all of the chadops are shaple.</h2></body>,True,NULL,4258
1572949564,b8e304025264d14fbdd864801f0d0385,Question2,84,0,Test-All-62-cather-funder,NULL,<head><style>div {background-color: #dbd9d9; width: 300px; border: 7px solid #3FB8AF; padding: 20px; margin: 20px;}</style></head><body><center><div><i><font size='4'>62% of the cathers are funder.</font></i></div></center><h2>All of the cathers are funder.</h2></body>,False,NULL,1527
1572949564,b8e304025264d14fbdd864801f0d0385,Question2,89,0,Test-Some-62-pliper-sesare,NULL,<head><style>div {background-color: #dbd9d9; width: 300px; border: 7px solid #3FB8AF; padding: 20px; margin: 20px;}</style></head><body><center><div><i><font size='4'>62% of the plipers are sesare.</font></i></div></center><h2>Some of the plipers are sesare.</h2></body>,False,NULL,1511
1572949564,b8e304025264d14fbdd864801f0d0385,Question2,127,0,Test-Some-Neg-51-pluset-stubad,NULL,<head><style>div {background-color: #dbd9d9; width: 300px; border: 7px solid #3FB8AF; padding: 20px; margin: 20px;}</style></head><body><center><div><i><font size='4'>51% of the plusets are stubad.</font></i></div></center><h2>It is not the case that some of the plusets are stubad.</h2></body>,False,NULL,1859
1572949564,b8e304025264d14fbdd864801f0d0385,Question2,14,0,Test-Most-7-gukbar-soarse,NULL,<head><style>div {background-color: #dbd9d9; width: 300px; border: 7px solid #3FB8AF; padding: 20px; margin: 20px;}</style></head><body><center><div><i><font size='4'>7% of the gukbars are soarse.</font></i></div></center><h2>Most of the gukbars are soarse.</h2></body>,True,NULL,1643
1572949564,b8e304025264d14fbdd864801f0d0385,Question2,72,0,Test-All-40-ancit-smeath,NULL,<head><style>div {background-color: #dbd9d9; width: 300px; border: 7px solid #3FB8AF; padding: 20px; margin: 20px;}</style></head><body><center><div><i><font size='4'>40% of the ancits are smeath.</font></i></div></center><h2>All of the ancits are smeath.</h2></body>,True,NULL,1844
1572949564,b8e304025264d14fbdd864801f0d0385,Question2,139,0,Test-Some-Neg-93-pirter-secent,NULL,<head><style>div {background-color: #dbd9d9; width: 300px; border: 7px solid #3FB8AF; padding: 20px; margin: 20px;}</style></head><body><center><div><i><font size='4'>93% of the pirters are secent.</font></i></div></center><h2>It is not the case that some of the pirters are secent.</h2></body>,True,NULL,1992
1572949564,b8e304025264d14fbdd864801f0d0385,Question2,80,0,Test-All-68-strant-potind,NULL,<head><style>div {background-color: #dbd9d9; width: 300px; border: 7px solid #3FB8AF; padding: 20px; margin: 20px;}</style></head><body><center><div><i><font size='4'>68% of the strants are potind.</font></i></div></center><h2>All of the strants are potind.</h2></body>,False,NULL,1629
1572949564,b8e304025264d14fbdd864801f0d0385,Question2,34,0,Test-Most-61-russer-huttle,NULL,<head><style>div {background-color: #dbd9d9; width: 300px; border: 7px solid #3FB8AF; padding: 20px; margin: 20px;}</style></head><body><center><div><i><font size='4'>61% of the russers are huttle.</font></i></div></center><h2>Most of the russers are huttle.</h2></body>,True,NULL,2210
1572949564,b8e304025264d14fbdd864801f0d0385,Question2,33,0,Test-Most-53-umpond-marire,NULL,<head><style>div {background-color: #dbd9d9; width: 300px; border: 7px solid #3FB8AF; padding: 20px; margin: 20px;}</style></head><body><center><div><i><font size='4'>53% of the umponds are marire.</font></i></div></center><h2>Most of the umponds are marire.</h2></body>,False,NULL,1676
1572949564,b8e304025264d14fbdd864801f0d0385,Question2,86,0,Test-All-60-birler-enciad,NULL,<head><style>div {background-color: #dbd9d9; width: 300px; border: 7px solid #3FB8AF; padding: 20px; margin: 20px;}</style></head><body><center><div><i><font size='4'>60% of the birlers are enciad.</font></i></div></center><h2>All of the birlers are enciad.</h2></body>,False,NULL,3142
1572949564,b8e304025264d14fbdd864801f0d0385,Question2,150,0,Test-All-Neg-88-ingell-nalill,NULL,<head><style>div {background-color: #dbd9d9; width: 300px; border: 7px solid #3FB8AF; padding: 20px; margin: 20px;}</style></head><body><center><div><i><font size='4'>88% of the ingells are nalill.</font></i></div></center><h2>It is not the case that all of the ingells are nalill.</h2></body>,False,NULL,2578
1572949564,b8e304025264d14fbdd864801f0d0385,Question2,117,0,Test-Some-Neg-40-middor-drooty,NULL,<head><style>div {background-color: #dbd9d9; width: 300px; border: 7px solid #3FB8AF; padding: 20px; margin: 20px;}</style></head><body><center><div><i><font size='4'>40% of the middors are drooty.</font></i></div></center><h2>It is not the case that some of the middors are drooty.</h2></body>,True,NULL,1859
1572949564,b8e304025264d14fbdd864801f0d0385,Question2,78,0,Test-All-49-shurrie-preser,NULL,<head><style>div {background-color: #dbd9d9; width: 300px; border: 7px solid #3FB8AF; padding: 20px; margin: 20px;}</style></head><body><center><div><i><font size='4'>49% of the shurries are preser.</font></i></div></center><h2>All of the shurries are preser.</h2></body>,True,NULL,1662
1572949564,b8e304025264d14fbdd864801f0d0385,Question2,140,0,Test-All-Neg-83-pirter-secent,NULL,<head><style>div {background-color: #dbd9d9; width: 300px; border: 7px solid #3FB8AF; padding: 20px; margin: 20px;}</style></head><body><center><div><i><font size='4'>83% of the pirters are secent.</font></i></div></center><h2>It is not the case that all of the pirters are secent.</h2></body>,False,NULL,5124
1572949564,b8e304025264d14fbdd864801f0d0385,Question2,26,0,Test-Most-41-zetten-unfobs,NULL,<head><style>div {background-color: #dbd9d9; width: 300px; border: 7px solid #3FB8AF; padding: 20px; margin: 20px;}</style></head><body><center><div><i><font size='4'>41% of the zettens are unfobs.</font></i></div></center><h2>Most of the zettens are unfobs.</h2></body>,True,NULL,1762
1572949564,b8e304025264d14fbdd864801f0d0385,Question2,17,0,Test-Most-11-spunge-wenple,NULL,<head><style>div {background-color: #dbd9d9; width: 300px; border: 7px solid #3FB8AF; padding: 20px; margin: 20px;}</style></head><body><center><div><i><font size='4'>11% of the spunges are wenple.</font></i></div></center><h2>Most of the spunges are wenple.</h2></body>,True,NULL,1623
1572949564,b8e304025264d14fbdd864801f0d0385,Question2,10,0,Test-Most-6-chadop-shaple,NULL,<head><style>div {background-color: #dbd9d9; width: 300px; border: 7px solid #3FB8AF; padding: 20px; margin: 20px;}</style></head><body><center><div><i><font size='4'>6% of the chadops are shaple.</font></i></div></center><h2>Most of the chadops are shaple.</h2></body>,True,NULL,1611
1572949564,b8e304025264d14fbdd864801f0d0385,Question2,50,0,Test-Most-97-dorder-coggon,NULL,<head><style>div {background-color: #dbd9d9; width: 300px; border: 7px solid #3FB8AF; padding: 20px; margin: 20px;}</style></head><body><center><div><i><font size='4'>97% of the dorders are coggon.</font></i></div></center><h2>Most of the dorders are coggon.</h2></body>,False,NULL,1609
1572949564,b8e304025264d14fbdd864801f0d0385,Question2,46,0,Test-Most-81-padnet-fanely,NULL,<head><style>div {background-color: #dbd9d9; width: 300px; border: 7px solid #3FB8AF; padding: 20px; margin: 20px;}</style></head><body><center><div><i><font size='4'>81% of the padnets are fanely.</font></i></div></center><h2>Most of the padnets are fanely.</h2></body>,False,NULL,1559
1572949564,b8e304025264d14fbdd864801f0d0385,Question2,36,0,Test-Most-65-tecker-biller,NULL,<head><style>div {background-color: #dbd9d9; width: 300px; border: 7px solid #3FB8AF; padding: 20px; margin: 20px;}</style></head><body><center><div><i><font size='4'>65% of the teckers are biller.</font></i></div></center><h2>Most of the teckers are biller.</h2></body>,False,NULL,1828
1572949564,b8e304025264d14fbdd864801f0d0385,Question2,103,0,Test-Some-Neg-21-beckel-racual,NULL,<head><style>div {background-color: #dbd9d9; width: 300px; border: 7px solid #3FB8AF; padding: 20px; margin: 20px;}</style></head><body><center><div><i><font size='4'>21% of the beckels are racual.</font></i></div></center><h2>It is not the case that some of the beckels are racual.</h2></body>,True,NULL,1527
1572949564,b8e304025264d14fbdd864801f0d0385,Question2,19,0,Test-Most-26-cosut-spover,NULL,<head><style>div {background-color: #dbd9d9; width: 300px; border: 7px solid #3FB8AF; padding: 20px; margin: 20px;}</style></head><body><center><div><i><font size='4'>26% of the cosuts are spover.</font></i></div></center><h2>Most of the cosuts are spover.</h2></body>,True,NULL,2893
1572949564,b8e304025264d14fbdd864801f0d0385,Question2,95,0,Test-Some-75-boddle-molill,NULL,<head><style>div {background-color: #dbd9d9; width: 300px; border: 7px solid #3FB8AF; padding: 20px; margin: 20px;}</style></head><body><center><div><i><font size='4'>75% of the boddles are molill.</font></i></div></center><h2>Some of the boddles are molill.</h2></body>,False,NULL,1442
1572949564,b8e304025264d14fbdd864801f0d0385,Question2,54,0,Test-Most-96-ingell-nalill,NULL,<head><style>div {background-color: #dbd9d9; width: 300px; border: 7px solid #3FB8AF; padding: 20px; margin: 20px;}</style></head><body><center><div><i><font size='4'>96% of the ingells are nalill.</font></i></div></center><h2>Most of the ingells are nalill.</h2></body>,False,NULL,2062
1572949564,b8e304025264d14fbdd864801f0d0385,Question2,112,0,Test-All-Neg-5-schook-jabant,NULL,<head><style>div {background-color: #dbd9d9; width: 300px; border: 7px solid #3FB8AF; padding: 20px; margin: 20px;}</style></head><body><center><div><i><font size='4'>5% of the schooks are jabant.</font></i></div></center><h2>It is not the case that all of the schooks are jabant.</h2></body>,True,NULL,1891
1572949564,b8e304025264d14fbdd864801f0d0385,Question2,120,0,Test-All-Neg-33-pengyl-sedest,NULL,<head><style>div {background-color: #dbd9d9; width: 300px; border: 7px solid #3FB8AF; padding: 20px; margin: 20px;}</style></head><body><center><div><i><font size='4'>33% of the pengyls are sedest.</font></i></div></center><h2>It is not the case that all of the pengyls are sedest.</h2></body>,True,NULL,1660
1572949564,b8e304025264d14fbdd864801f0d0385,Question2,23,0,Test-Most-46-ancit-smeath,NULL,<head><style>div {background-color: #dbd9d9; width: 300px; border: 7px solid #3FB8AF; padding: 20px; margin: 20px;}</style></head><body><center><div><i><font size='4'>46% of the ancits are smeath.</font></i></div></center><h2>Most of the ancits are smeath.</h2></body>,True,NULL,1913
1572949564,b8e304025264d14fbdd864801f0d0385,Question2,138,0,Test-All-Neg-67-coppar-hunene,NULL,<head><style>div {background-color: #dbd9d9; width: 300px; border: 7px solid #3FB8AF; padding: 20px; margin: 20px;}</style></head><body><center><div><i><font size='4'>67% of the coppars are hunene.</font></i></div></center><h2>It is not the case that all of the coppars are hunene.</h2></body>,False,NULL,1427
1572949564,b8e304025264d14fbdd864801f0d0385,Question2,57,0,Test-Some-16-puggle-entand,NULL,<head><style>div {background-color: #dbd9d9; width: 300px; border: 7px solid #3FB8AF; padding: 20px; margin: 20px;}</style></head><body><center><div><i><font size='4'>16% of the puggles are entand.</font></i></div></center><h2>Some of the puggles are entand.</h2></body>,True,NULL,1742
1572949564,b8e304025264d14fbdd864801f0d0385,Question2,109,0,Test-Some-Neg-11-gukbar-soarse,NULL,<head><style>div {background-color: #dbd9d9; width: 300px; border: 7px solid #3FB8AF; padding: 20px; margin: 20px;}</style></head><body><center><div><i><font size='4'>11% of the gukbars are soarse.</font></i></div></center><h2>It is not the case that some of the gukbars are soarse.</h2></body>,True,NULL,1495
1572949564,b8e304025264d14fbdd864801f0d0385,Question2,64,0,Test-All-6-clidge-hensly,NULL,<head><style>div {background-color: #dbd9d9; width: 300px; border: 7px solid #3FB8AF; padding: 20px; margin: 20px;}</style></head><body><center><div><i><font size='4'>6% of the clidges are hensly.</font></i></div></center><h2>All of the clidges are hensly.</h2></body>,True,NULL,2045
1572949564,b8e304025264d14fbdd864801f0d0385,Question2,100,0,Test-All-76-puctor-recure,NULL,<head><style>div {background-color: #dbd9d9; width: 300px; border: 7px solid #3FB8AF; padding: 20px; margin: 20px;}</style></head><body><center><div><i><font size='4'>76% of the puctors are recure.</font></i></div></center><h2>All of the puctors are recure.</h2></body>,False,NULL,1529
1572949564,b8e304025264d14fbdd864801f0d0385,Question2,47,0,Test-Most-94-boddle-molill,NULL,<head><style>div {background-color: #dbd9d9; width: 300px; border: 7px solid #3FB8AF; padding: 20px; margin: 20px;}</style></head><body><center><div><i><font size='4'>94% of the boddles are molill.</font></i></div></center><h2>Most of the boddles are molill.</h2></body>,True,NULL,2356
1572949564,b8e304025264d14fbdd864801f0d0385,Question2,31,0,Test-Most-70-strant-potind,NULL,<head><style>div {background-color: #dbd9d9; width: 300px; border: 7px solid #3FB8AF; padding: 20px; margin: 20px;}</style></head><body><center><div><i><font size='4'>70% of the strants are potind.</font></i></div></center><h2>Most of the strants are potind.</h2></body>,False,NULL,2347
1572949564,b8e304025264d14fbdd864801f0d0385,Question2,98,0,Test-All-81-jallem-sildal,NULL,<head><style>div {background-color: #dbd9d9; width: 300px; border: 7px solid #3FB8AF; padding: 20px; margin: 20px;}</style></head><body><center><div><i><font size='4'>81% of the jallems are sildal.</font></i></div></center><h2>All of the jallems are sildal.</h2></body>,False,NULL,1625
1572949564,b8e304025264d14fbdd864801f0d0385,Question2,149,0,Test-Some-Neg-87-ingell-nalill,NULL,<head><style>div {background-color: #dbd9d9; width: 300px; border: 7px solid #3FB8AF; padding: 20px; margin: 20px;}</style></head><body><center><div><i><font size='4'>87% of the ingells are nalill.</font></i></div></center><h2>It is not the case that some of the ingells are nalill.</h2></body>,False,NULL,1379
1572949564,b8e304025264d14fbdd864801f0d0385,Question2,77,0,Test-Some-49-shurrie-preser,NULL,<head><style>div {background-color: #dbd9d9; width: 300px; border: 7px solid #3FB8AF; padding: 20px; margin: 20px;}</style></head><body><center><div><i><font size='4'>49% of the shurries are preser.</font></i></div></center><h2>Some of the shurries are preser.</h2></body>,True,NULL,1877
1572949564,b8e304025264d14fbdd864801f0d0385,Question2,73,0,Test-Some-48-hadder-ollidy,NULL,<head><style>div {background-color: #dbd9d9; width: 300px; border: 7px solid #3FB8AF; padding: 20px; margin: 20px;}</style></head><body><center><div><i><font size='4'>48% of the hadders are ollidy.</font></i></div></center><h2>Some of the hadders are ollidy.</h2></body>,True,NULL,1628
1572949564,b8e304025264d14fbdd864801f0d0385,Question2,62,0,Test-All-19-mecket-plumry,NULL,<head><style>div {background-color: #dbd9d9; width: 300px; border: 7px solid #3FB8AF; padding: 20px; margin: 20px;}</style></head><body><center><div><i><font size='4'>19% of the meckets are plumry.</font></i></div></center><h2>All of the meckets are plumry.</h2></body>,True,NULL,1709
1572949564,b8e304025264d14fbdd864801f0d0385,Question2,85,0,Test-Some-68-birler-enciad,NULL,<head><style>div {background-color: #dbd9d9; width: 300px; border: 7px solid #3FB8AF; padding: 20px; margin: 20px;}</style></head><body><center><div><i><font size='4'>68% of the birlers are enciad.</font></i></div></center><h2>Some of the birlers are enciad.</h2></body>,True,NULL,1828
1572949564,b8e304025264d14fbdd864801f0d0385,Question2,137,0,Test-Some-Neg-53-coppar-hunene,NULL,<head><style>div {background-color: #dbd9d9; width: 300px; border: 7px solid #3FB8AF; padding: 20px; margin: 20px;}</style></head><body><center><div><i><font size='4'>53% of the coppars are hunene.</font></i></div></center><h2>It is not the case that some of the coppars are hunene.</h2></body>,False,NULL,1887
1572949564,b8e304025264d14fbdd864801f0d0385,Question2,87,0,Test-Some-61-menner-nandow,NULL,<head><style>div {background-color: #dbd9d9; width: 300px; border: 7px solid #3FB8AF; padding: 20px; margin: 20px;}</style></head><body><center><div><i><font size='4'>61% of the menners are nandow.</font></i></div></center><h2>Some of the menners are nandow.</h2></body>,False,NULL,2710
1572949564,b8e304025264d14fbdd864801f0d0385,Question2,21,0,Test-Most-28-shamer-bloif,NULL,<head><style>div {background-color: #dbd9d9; width: 300px; border: 7px solid #3FB8AF; padding: 20px; margin: 20px;}</style></head><body><center><div><i><font size='4'>28% of the shamers are bloif.</font></i></div></center><h2>Most of the shamers are bloif.</h2></body>,True,NULL,1529
1572949564,b8e304025264d14fbdd864801f0d0385,Question2,11,0,Test-Most-18-chulk-vulhor,NULL,<head><style>div {background-color: #dbd9d9; width: 300px; border: 7px solid #3FB8AF; padding: 20px; margin: 20px;}</style></head><body><center><div><i><font size='4'>18% of the chulks are vulhor.</font></i></div></center><h2>Most of the chulks are vulhor.</h2></body>,True,NULL,1661
1572949564,b8e304025264d14fbdd864801f0d0385,Question2,55,0,Test-Some-19-kustle-reshix,NULL,<head><style>div {background-color: #dbd9d9; width: 300px; border: 7px solid #3FB8AF; padding: 20px; margin: 20px;}</style></head><body><center><div><i><font size='4'>19% of the kustles are reshix.</font></i></div></center><h2>Some of the kustles are reshix.</h2></body>,True,NULL,1612
1572949564,b8e304025264d14fbdd864801f0d0385,Question2,111,0,Test-Some-Neg-1-schook-jabant,NULL,<head><style>div {background-color: #dbd9d9; width: 300px; border: 7px solid #3FB8AF; padding: 20px; margin: 20px;}</style></head><body><center><div><i><font size='4'>1% of the schooks are jabant.</font></i></div></center><h2>It is not the case that some of the schooks are jabant.</h2></body>,True,NULL,1911
1572949564,b8e304025264d14fbdd864801f0d0385,Question2,94,0,Test-All-79-pobbit-spippy,NULL,<head><style>div {background-color: #dbd9d9; width: 300px; border: 7px solid #3FB8AF; padding: 20px; margin: 20px;}</style></head><body><center><div><i><font size='4'>79% of the pobbits are spippy.</font></i></div></center><h2>All of the pobbits are spippy.</h2></body>,False,NULL,2297
1572949564,b8e304025264d14fbdd864801f0d0385,Question2,132,0,Test-All-Neg-55-tecker-biller,NULL,<head><style>div {background-color: #dbd9d9; width: 300px; border: 7px solid #3FB8AF; padding: 20px; margin: 20px;}</style></head><body><center><div><i><font size='4'>55% of the teckers are biller.</font></i></div></center><h2>It is not the case that all of the teckers are biller.</h2></body>,False,NULL,1877
1572949564,b8e304025264d14fbdd864801f0d0385,Question2,45,0,Test-Most-99-pobbit-spippy,NULL,<head><style>div {background-color: #dbd9d9; width: 300px; border: 7px solid #3FB8AF; padding: 20px; margin: 20px;}</style></head><body><center><div><i><font size='4'>99% of the pobbits are spippy.</font></i></div></center><h2>Most of the pobbits are spippy.</h2></body>,False,NULL,1593
1572949564,b8e304025264d14fbdd864801f0d0385,Question2,28,0,Test-Most-44-tiklet-hullaw,NULL,<head><style>div {background-color: #dbd9d9; width: 300px; border: 7px solid #3FB8AF; padding: 20px; margin: 20px;}</style></head><body><center><div><i><font size='4'>44% of the tiklets are hullaw.</font></i></div></center><h2>Most of the tiklets are hullaw.</h2></body>,True,NULL,1429
1572949564,b8e304025264d14fbdd864801f0d0385,Question2,147,0,Test-Some-Neg-95-chevel-podden,NULL,<head><style>div {background-color: #dbd9d9; width: 300px; border: 7px solid #3FB8AF; padding: 20px; margin: 20px;}</style></head><body><center><div><i><font size='4'>95% of the chevels are podden.</font></i></div></center><h2>It is not the case that some of the chevels are podden.</h2></body>,False,NULL,1596
1572949564,b8e304025264d14fbdd864801f0d0385,Question2,76,0,Test-All-30-fleeve-scalfs,NULL,<head><style>div {background-color: #dbd9d9; width: 300px; border: 7px solid #3FB8AF; padding: 20px; margin: 20px;}</style></head><body><center><div><i><font size='4'>30% of the fleeves are scalfs.</font></i></div></center><h2>All of the fleeves are scalfs.</h2></body>,True,NULL,1694
1572949564,b8e304025264d14fbdd864801f0d0385,Question2,37,0,Test-Most-55-birler-enciad,NULL,<head><style>div {background-color: #dbd9d9; width: 300px; border: 7px solid #3FB8AF; padding: 20px; margin: 20px;}</style></head><body><center><div><i><font size='4'>55% of the birlers are enciad.</font></i></div></center><h2>Most of the birlers are enciad.</h2></body>,False,NULL,2445
1572949564,b8e304025264d14fbdd864801f0d0385,Question2,53,0,Test-Most-84-awplor-fasees,NULL,<head><style>div {background-color: #dbd9d9; width: 300px; border: 7px solid #3FB8AF; padding: 20px; margin: 20px;}</style></head><body><center><div><i><font size='4'>84% of the awplors are fasees.</font></i></div></center><h2>Most of the awplors are fasees.</h2></body>,False,NULL,1595
1572949564,b8e304025264d14fbdd864801f0d0385,Question2,49,0,Test-Most-88-jallem-sildal,NULL,<head><style>div {background-color: #dbd9d9; width: 300px; border: 7px solid #3FB8AF; padding: 20px; margin: 20px;}</style></head><body><center><div><i><font size='4'>88% of the jallems are sildal.</font></i></div></center><h2>Most of the jallems are sildal.</h2></body>,False,NULL,1478
1572949564,b8e304025264d14fbdd864801f0d0385,Question2,108,0,Test-All-Neg-24-werner-hurmer,NULL,<head><style>div {background-color: #dbd9d9; width: 300px; border: 7px solid #3FB8AF; padding: 20px; margin: 20px;}</style></head><body><center><div><i><font size='4'>24% of the werners are hurmer.</font></i></div></center><h2>It is not the case that all of the werners are hurmer.</h2></body>,True,NULL,1461
1572949564,b8e304025264d14fbdd864801f0d0385,Question2,92,0,Test-All-97-sporer-firtly,NULL,<head><style>div {background-color: #dbd9d9; width: 300px; border: 7px solid #3FB8AF; padding: 20px; margin: 20px;}</style></head><body><center><div><i><font size='4'>97% of the sporers are firtly.</font></i></div></center><h2>All of the sporers are firtly.</h2></body>,False,NULL,1497
1572949564,b8e304025264d14fbdd864801f0d0385,Question2,88,0,Test-All-69-menner-nandow,NULL,<head><style>div {background-color: #dbd9d9; width: 300px; border: 7px solid #3FB8AF; padding: 20px; margin: 20px;}</style></head><body><center><div><i><font size='4'>69% of the menners are nandow.</font></i></div></center><h2>All of the menners are nandow.</h2></body>,False,NULL,1595
1572949564,b8e304025264d14fbdd864801f0d0385,Question2,41,0,Test-Most-68-pliper-sesare,NULL,<head><style>div {background-color: #dbd9d9; width: 300px; border: 7px solid #3FB8AF; padding: 20px; margin: 20px;}</style></head><body><center><div><i><font size='4'>68% of the plipers are sesare.</font></i></div></center><h2>Most of the plipers are sesare.</h2></body>,False,NULL,1959
1572949564,b8e304025264d14fbdd864801f0d0385,Question2,144,0,Test-All-Neg-84-devole-sholly,NULL,<head><style>div {background-color: #dbd9d9; width: 300px; border: 7px solid #3FB8AF; padding: 20px; margin: 20px;}</style></head><body><center><div><i><font size='4'>84% of the devoles are sholly.</font></i></div></center><h2>It is not the case that all of the devoles are sholly.</h2></body>,False,NULL,1713
1572949564,b8e304025264d14fbdd864801f0d0385,Question2,27,0,Test-Most-34-fleeve-scalfs,NULL,<head><style>div {background-color: #dbd9d9; width: 300px; border: 7px solid #3FB8AF; padding: 20px; margin: 20px;}</style></head><body><center><div><i><font size='4'>34% of the fleeves are scalfs.</font></i></div></center><h2>Most of the fleeves are scalfs.</h2></body>,True,NULL,1611
1572949564,b8e304025264d14fbdd864801f0d0385,Question2,20,0,Test-Most-29-coamin-mucond,NULL,<head><style>div {background-color: #dbd9d9; width: 300px; border: 7px solid #3FB8AF; padding: 20px; margin: 20px;}</style></head><body><center><div><i><font size='4'>29% of the coamins are mucond.</font></i></div></center><h2>Most of the coamins are mucond.</h2></body>,True,NULL,2195
1572949564,b8e304025264d14fbdd864801f0d0385,Question2,79,0,Test-Some-52-strant-potind,NULL,<head><style>div {background-color: #dbd9d9; width: 300px; border: 7px solid #3FB8AF; padding: 20px; margin: 20px;}</style></head><body><center><div><i><font size='4'>52% of the strants are potind.</font></i></div></center><h2>Some of the strants are potind.</h2></body>,True,NULL,1674
1572949564,b8e304025264d14fbdd864801f0d0385,Question2,42,0,Test-Most-73-coppar-hunene,NULL,<head><style>div {background-color: #dbd9d9; width: 300px; border: 7px solid #3FB8AF; padding: 20px; margin: 20px;}</style></head><body><center><div><i><font size='4'>73% of the coppars are hunene.</font></i></div></center><h2>Most of the coppars are hunene.</h2></body>,False,NULL,1429
1572949564,b8e304025264d14fbdd864801f0d0385,Question2,97,0,Test-Some-76-jallem-sildal,NULL,<head><style>div {background-color: #dbd9d9; width: 300px; border: 7px solid #3FB8AF; padding: 20px; margin: 20px;}</style></head><body><center><div><i><font size='4'>76% of the jallems are sildal.</font></i></div></center><h2>Some of the jallems are sildal.</h2></body>,False,NULL,1409
1572949564,b8e304025264d14fbdd864801f0d0385,Question2,25,0,Test-Most-42-hadder-ollidy,NULL,<head><style>div {background-color: #dbd9d9; width: 300px; border: 7px solid #3FB8AF; padding: 20px; margin: 20px;}</style></head><body><center><div><i><font size='4'>42% of the hadders are ollidy.</font></i></div></center><h2>Most of the hadders are ollidy.</h2></body>,True,NULL,1447
1572949564,b8e304025264d14fbdd864801f0d0385,Question2,136,0,Test-All-Neg-59-bamet-unzast,NULL,<head><style>div {background-color: #dbd9d9; width: 300px; border: 7px solid #3FB8AF; padding: 20px; margin: 20px;}</style></head><body><center><div><i><font size='4'>59% of the bamets are unzast.</font></i></div></center><h2>It is not the case that all of the bamets are unzast.</h2></body>,False,NULL,2560
1572949564,b8e304025264d14fbdd864801f0d0385,Question2,68,0,Test-All-25-cosut-spover,NULL,<head><style>div {background-color: #dbd9d9; width: 300px; border: 7px solid #3FB8AF; padding: 20px; margin: 20px;}</style></head><body><center><div><i><font size='4'>25% of the cosuts are spover.</font></i></div></center><h2>All of the cosuts are spover.</h2></body>,True,NULL,1413
1572949564,b8e304025264d14fbdd864801f0d0385,Question2,128,0,Test-All-Neg-51-pluset-stubad,NULL,<head><style>div {background-color: #dbd9d9; width: 300px; border: 7px solid #3FB8AF; padding: 20px; margin: 20px;}</style></head><body><center><div><i><font size='4'>51% of the plusets are stubad.</font></i></div></center><h2>It is not the case that all of the plusets are stubad.</h2></body>,False,NULL,2113
1572949564,b8e304025264d14fbdd864801f0d0385,Question2,124,0,Test-All-Neg-37-tiklet-hullaw,NULL,<head><style>div {background-color: #dbd9d9; width: 300px; border: 7px solid #3FB8AF; padding: 20px; margin: 20px;}</style></head><body><center><div><i><font size='4'>37% of the tiklets are hullaw.</font></i></div></center><h2>It is not the case that all of the tiklets are hullaw.</h2></body>,True,NULL,1909
1572949564,b8e304025264d14fbdd864801f0d0385,Question2,8,0,Test-Most-13-beckel-racual,NULL,<head><style>div {background-color: #dbd9d9; width: 300px; border: 7px solid #3FB8AF; padding: 20px; margin: 20px;}</style></head><body><center><div><i><font size='4'>13% of the beckels are racual.</font></i></div></center><h2>Most of the beckels are racual.</h2></body>,True,NULL,1580
1572949564,b8e304025264d14fbdd864801f0d0385,Question2,12,0,Test-Most-10-werner-hurmer,NULL,<head><style>div {background-color: #dbd9d9; width: 300px; border: 7px solid #3FB8AF; padding: 20px; margin: 20px;}</style></head><body><center><div><i><font size='4'>10% of the werners are hurmer.</font></i></div></center><h2>Most of the werners are hurmer.</h2></body>,True,NULL,1710
1572949564,b8e304025264d14fbdd864801f0d0385,Question2,102,0,Test-All-94-awplor-fasees,NULL,<head><style>div {background-color: #dbd9d9; width: 300px; border: 7px solid #3FB8AF; padding: 20px; margin: 20px;}</style></head><body><center><div><i><font size='4'>94% of the awplors are fasees.</font></i></div></center><h2>All of the awplors are fasees.</h2></body>,False,NULL,1585
1572949564,b8e304025264d14fbdd864801f0d0385,Question2,74,0,Test-All-46-hadder-ollidy,NULL,<head><style>div {background-color: #dbd9d9; width: 300px; border: 7px solid #3FB8AF; padding: 20px; margin: 20px;}</style></head><body><center><div><i><font size='4'>46% of the hadders are ollidy.</font></i></div></center><h2>All of the hadders are ollidy.</h2></body>,True,NULL,1470
1572949564,b8e304025264d14fbdd864801f0d0385,Question2,35,0,Test-Most-67-cather-funder,NULL,<head><style>div {background-color: #dbd9d9; width: 300px; border: 7px solid #3FB8AF; padding: 20px; margin: 20px;}</style></head><body><center><div><i><font size='4'>67% of the cathers are funder.</font></i></div></center><h2>Most of the cathers are funder.</h2></body>,False,NULL,1447
1572949564,b8e304025264d14fbdd864801f0d0385,Question2,13,0,Test-Most-20-mecket-plumry,NULL,<head><style>div {background-color: #dbd9d9; width: 300px; border: 7px solid #3FB8AF; padding: 20px; margin: 20px;}</style></head><body><center><div><i><font size='4'>20% of the meckets are plumry.</font></i></div></center><h2>Most of the meckets are plumry.</h2></body>,True,NULL,1476
1572949564,b8e304025264d14fbdd864801f0d0385,Question2,113,0,Test-Some-Neg-12-shrile-athoid,NULL,<head><style>div {background-color: #dbd9d9; width: 300px; border: 7px solid #3FB8AF; padding: 20px; margin: 20px;}</style></head><body><center><div><i><font size='4'>12% of the shriles are athoid.</font></i></div></center><h2>It is not the case that some of the shriles are athoid.</h2></body>,True,NULL,1376
1572949564,b8e304025264d14fbdd864801f0d0385,Question2,52,0,Test-Most-85-chevel-podden,NULL,<head><style>div {background-color: #dbd9d9; width: 300px; border: 7px solid #3FB8AF; padding: 20px; margin: 20px;}</style></head><body><center><div><i><font size='4'>85% of the chevels are podden.</font></i></div></center><h2>Most of the chevels are podden.</h2></body>,False,NULL,1394
1572949564,b8e304025264d14fbdd864801f0d0385,Question2,146,0,Test-All-Neg-80-dorder-coggon,NULL,<head><style>div {background-color: #dbd9d9; width: 300px; border: 7px solid #3FB8AF; padding: 20px; margin: 20px;}</style></head><body><center><div><i><font size='4'>80% of the dorders are coggon.</font></i></div></center><h2>It is not the case that all of the dorders are coggon.</h2></body>,False,NULL,1613
1572949564,b8e304025264d14fbdd864801f0d0385,Question2,81,0,Test-Some-59-umpond-marire,NULL,<head><style>div {background-color: #dbd9d9; width: 300px; border: 7px solid #3FB8AF; padding: 20px; margin: 20px;}</style></head><body><center><div><i><font size='4'>59% of the umponds are marire.</font></i></div></center><h2>Some of the umponds are marire.</h2></body>,False,NULL,1594
1572949564,b8e304025264d14fbdd864801f0d0385,Question2,69,0,Test-Some-30-shamer-bloif,NULL,<head><style>div {background-color: #dbd9d9; width: 300px; border: 7px solid #3FB8AF; padding: 20px; margin: 20px;}</style></head><body><center><div><i><font size='4'>30% of the shamers are bloif.</font></i></div></center><h2>Some of the shamers are bloif.</h2></body>,True,NULL,1530
1572949564,b8e304025264d14fbdd864801f0d0385,Question2,91,0,Test-Some-90-sporer-firtly,NULL,<head><style>div {background-color: #dbd9d9; width: 300px; border: 7px solid #3FB8AF; padding: 20px; margin: 20px;}</style></head><body><center><div><i><font size='4'>90% of the sporers are firtly.</font></i></div></center><h2>Some of the sporers are firtly.</h2></body>,False,NULL,1436
1572949564,b8e304025264d14fbdd864801f0d0385,Question2,56,0,Test-All-17-kustle-reshix,NULL,<head><style>div {background-color: #dbd9d9; width: 300px; border: 7px solid #3FB8AF; padding: 20px; margin: 20px;}</style></head><body><center><div><i><font size='4'>17% of the kustles are reshix.</font></i></div></center><h2>All of the kustles are reshix.</h2></body>,True,NULL,1511
# The lines below this comment are in groups of 2.
# The formats of the lines in each of these groups are as follows:
#
# Line 1:
#     Col. 1: Time results were received.
#     Col. 2: MD5 hash of participant's IP address.
#     Col. 3: Controller name.
#     Col. 4: Item number.
#     Col. 5: Element number.
#     Col. 6: Type.
#     Col. 7: Group.
#     Col. 8: html.
#     Col. 9: value.
# Line 2:
#     Col. 1: Time results were received.
#     Col. 2: MD5 hash of participant's IP address.
#     Col. 3: Controller name.
#     Col. 4: Item number.
#     Col. 5: Element number.
#     Col. 6: Type.
#     Col. 7: Group.
#     Col. 8: Field name.
#     Col. 9: Field value.
1572949564,b8e304025264d14fbdd864801f0d0385,SliderQuestion1,4,0,Criterionpos,NULL,<center><p style=" font-size: 1.4em;font-family: Book Antiqua%2C Palatino%2C serif;">Most of the kallils are namib.</p><p align="justify" %2C="" style="width:500px;"><i>In this study%2C we are interested in how people interpret sentences which begin with "Most of the"%2C such as the sentence above. We would like to know what your criterion was in the task you have just completed to say that such sentences are true. What is the minimum percentage that you would understand of kallils to be namib? Please position the slider below as close as possible to that percentage. Once you have done that%2C press 'Continue'.</i></p></center>,28.57
1572949564,b8e304025264d14fbdd864801f0d0385,NewForm,151,0,form,NULL,language,English 
# Columns below this comment are as follows:
# 1. Time results were received.
# 2. MD5 hash of participant's IP address.
# 3. Controller name.
# 4. Item number.
# 5. Element number.
# 6. Type.
# 7. Group.
# 8. Field name.
# 9. Field value.
1572949564,b8e304025264d14fbdd864801f0d0385,NewForm,151,0,form,NULL,ProlificID,59e614003e4b5a00016aa35f
1572949564,b8e304025264d14fbdd864801f0d0385,NewForm,151,0,form,NULL,comment,
1572949564,b8e304025264d14fbdd864801f0d0385,NewForm,151,0,form,NULL,_REACTION_TIME_,28358
#
# Results on Tuesday November 05 2019 10:28:00 UTC.
# USER AGENT: Mozilla/5.0 (Windows NT 10.0; Win64; x64) AppleWebKit/537.36 (KHTML, like Gecko) Chrome/77.0.3865.120 Safari/537.36
# Design number was non-random = 1
#
# Columns below this comment are as follows:
# 1. Time results were received.
# 2. MD5 hash of participant's IP address.
# 3. Controller name.
# 4. Item number.
# 5. Element number.
# 6. Type.
# 7. Group.
# 8. Field name.
# 9. Field value.
1572949681,b6db334aadbb75e62a185a38b738e122,NewForm,0,0,agreement,NULL,,yes
1572949681,b6db334aadbb75e62a185a38b738e122,NewForm,0,0,agreement,NULL,_REACTION_TIME_,1654
1572949681,b6db334aadbb75e62a185a38b738e122,NewForm,1,0,instructions1,NULL,,yes
1572949681,b6db334aadbb75e62a185a38b738e122,NewForm,1,0,instructions1,NULL,_REACTION_TIME_,6371
# Columns below this comment are as follows:
# 1. Time results were received.
# 2. MD5 hash of participant's IP address.
# 3. Controller name.
# 4. Item number.
# 5. Element number.
# 6. Type.
# 7. Group.
# 8. Question (NULL if none).
# 9. Answer.
# 10. Whether or not answer was correct (NULL if N/A).
# 11. Time taken to answer.
1572949681,b6db334aadbb75e62a185a38b738e122,Question2,5,0,practice-some,NULL,<head><style>div {background-color: #dbd9d9; width: 300px; border: 7px solid #3FB8AF; padding: 20px; margin: 20px;}</style></head><body><div><i><font size='4'> 20% of the glerbs are fizda.</font></i></div><h2>Some of the glerbs are fizda.</h2></body>,True,NULL,1885
1572949681,b6db334aadbb75e62a185a38b738e122,Question2,6,0,practice-all,NULL,<head><style>div {background-color: #dbd9d9; width: 300px; border: 7px solid #3FB8AF; padding: 20px; margin: 20px;}</style></head><body><div><i><font size='4'> 82% of the thonks are crangly.</font></i></div><h2>All of the thonks are crangly.</h2></body>,False,NULL,2485
1572949681,b6db334aadbb75e62a185a38b738e122,Question2,15,0,Test-Most-17-clidge-hensly,NULL,<head><style>div {background-color: #dbd9d9; width: 300px; border: 7px solid #3FB8AF; padding: 20px; margin: 20px;}</style></head><body><center><div><i><font size='4'>17% of the clidges are hensly.</font></i></div></center><h2>Most of the clidges are hensly.</h2></body>,False,NULL,2206
1572949681,b6db334aadbb75e62a185a38b738e122,Question2,49,0,Test-Most-88-jallem-sildal,NULL,<head><style>div {background-color: #dbd9d9; width: 300px; border: 7px solid #3FB8AF; padding: 20px; margin: 20px;}</style></head><body><center><div><i><font size='4'>88% of the jallems are sildal.</font></i></div></center><h2>Most of the jallems are sildal.</h2></body>,True,NULL,1598
1572949681,b6db334aadbb75e62a185a38b738e122,Question2,34,0,Test-Most-61-russer-huttle,NULL,<head><style>div {background-color: #dbd9d9; width: 300px; border: 7px solid #3FB8AF; padding: 20px; margin: 20px;}</style></head><body><center><div><i><font size='4'>61% of the russers are huttle.</font></i></div></center><h2>Most of the russers are huttle.</h2></body>,True,NULL,886
1572949681,b6db334aadbb75e62a185a38b738e122,Question2,8,0,Test-Most-13-beckel-racual,NULL,<head><style>div {background-color: #dbd9d9; width: 300px; border: 7px solid #3FB8AF; padding: 20px; margin: 20px;}</style></head><body><center><div><i><font size='4'>13% of the beckels are racual.</font></i></div></center><h2>Most of the beckels are racual.</h2></body>,False,NULL,1222
1572949681,b6db334aadbb75e62a185a38b738e122,Question2,41,0,Test-Most-68-pliper-sesare,NULL,<head><style>div {background-color: #dbd9d9; width: 300px; border: 7px solid #3FB8AF; padding: 20px; margin: 20px;}</style></head><body><center><div><i><font size='4'>68% of the plipers are sesare.</font></i></div></center><h2>Most of the plipers are sesare.</h2></body>,True,NULL,1837
1572949681,b6db334aadbb75e62a185a38b738e122,Question2,109,0,Test-Some-Neg-11-gukbar-soarse,NULL,<head><style>div {background-color: #dbd9d9; width: 300px; border: 7px solid #3FB8AF; padding: 20px; margin: 20px;}</style></head><body><center><div><i><font size='4'>11% of the gukbars are soarse.</font></i></div></center><h2>It is not the case that some of the gukbars are soarse.</h2></body>,True,NULL,4550
1572949681,b6db334aadbb75e62a185a38b738e122,Question2,71,0,Test-Some-32-ancit-smeath,NULL,<head><style>div {background-color: #dbd9d9; width: 300px; border: 7px solid #3FB8AF; padding: 20px; margin: 20px;}</style></head><body><center><div><i><font size='4'>32% of the ancits are smeath.</font></i></div></center><h2>Some of the ancits are smeath.</h2></body>,True,NULL,3899
1572949681,b6db334aadbb75e62a185a38b738e122,Question2,75,0,Test-Some-44-fleeve-scalfs,NULL,<head><style>div {background-color: #dbd9d9; width: 300px; border: 7px solid #3FB8AF; padding: 20px; margin: 20px;}</style></head><body><center><div><i><font size='4'>44% of the fleeves are scalfs.</font></i></div></center><h2>Some of the fleeves are scalfs.</h2></body>,True,NULL,1142
1572949681,b6db334aadbb75e62a185a38b738e122,Question2,47,0,Test-Most-94-boddle-molill,NULL,<head><style>div {background-color: #dbd9d9; width: 300px; border: 7px solid #3FB8AF; padding: 20px; margin: 20px;}</style></head><body><center><div><i><font size='4'>94% of the boddles are molill.</font></i></div></center><h2>Most of the boddles are molill.</h2></body>,True,NULL,1494
1572949681,b6db334aadbb75e62a185a38b738e122,Question2,129,0,Test-Some-Neg-58-russer-huttle,NULL,<head><style>div {background-color: #dbd9d9; width: 300px; border: 7px solid #3FB8AF; padding: 20px; margin: 20px;}</style></head><body><center><div><i><font size='4'>58% of the russers are huttle.</font></i></div></center><h2>It is not the case that some of the russers are huttle.</h2></body>,False,NULL,1550
1572949681,b6db334aadbb75e62a185a38b738e122,Question2,52,0,Test-Most-85-chevel-podden,NULL,<head><style>div {background-color: #dbd9d9; width: 300px; border: 7px solid #3FB8AF; padding: 20px; margin: 20px;}</style></head><body><center><div><i><font size='4'>85% of the chevels are podden.</font></i></div></center><h2>Most of the chevels are podden.</h2></body>,True,NULL,1247
1572949681,b6db334aadbb75e62a185a38b738e122,Question2,106,0,Test-All-Neg-9-chadop-shaple,NULL,<head><style>div {background-color: #dbd9d9; width: 300px; border: 7px solid #3FB8AF; padding: 20px; margin: 20px;}</style></head><body><center><div><i><font size='4'>9% of the chadops are shaple.</font></i></div></center><h2>It is not the case that all of the chadops are shaple.</h2></body>,False,NULL,1045
1572949681,b6db334aadbb75e62a185a38b738e122,Question2,25,0,Test-Most-42-hadder-ollidy,NULL,<head><style>div {background-color: #dbd9d9; width: 300px; border: 7px solid #3FB8AF; padding: 20px; margin: 20px;}</style></head><body><center><div><i><font size='4'>42% of the hadders are ollidy.</font></i></div></center><h2>Most of the hadders are ollidy.</h2></body>,False,NULL,3189
1572949681,b6db334aadbb75e62a185a38b738e122,Question2,128,0,Test-All-Neg-51-pluset-stubad,NULL,<head><style>div {background-color: #dbd9d9; width: 300px; border: 7px solid #3FB8AF; padding: 20px; margin: 20px;}</style></head><body><center><div><i><font size='4'>51% of the plusets are stubad.</font></i></div></center><h2>It is not the case that all of the plusets are stubad.</h2></body>,False,NULL,2246
1572949681,b6db334aadbb75e62a185a38b738e122,Question2,78,0,Test-All-49-shurrie-preser,NULL,<head><style>div {background-color: #dbd9d9; width: 300px; border: 7px solid #3FB8AF; padding: 20px; margin: 20px;}</style></head><body><center><div><i><font size='4'>49% of the shurries are preser.</font></i></div></center><h2>All of the shurries are preser.</h2></body>,False,NULL,2095
1572949681,b6db334aadbb75e62a185a38b738e122,Question2,135,0,Test-Some-Neg-69-bamet-unzast,NULL,<head><style>div {background-color: #dbd9d9; width: 300px; border: 7px solid #3FB8AF; padding: 20px; margin: 20px;}</style></head><body><center><div><i><font size='4'>69% of the bamets are unzast.</font></i></div></center><h2>It is not the case that some of the bamets are unzast.</h2></body>,True,NULL,2799
1572949681,b6db334aadbb75e62a185a38b738e122,Question2,18,0,Test-Most-9-shrile-athoid,NULL,<head><style>div {background-color: #dbd9d9; width: 300px; border: 7px solid #3FB8AF; padding: 20px; margin: 20px;}</style></head><body><center><div><i><font size='4'>9% of the shriles are athoid.</font></i></div></center><h2>Most of the shriles are athoid.</h2></body>,False,NULL,2078
1572949681,b6db334aadbb75e62a185a38b738e122,Question2,28,0,Test-Most-44-tiklet-hullaw,NULL,<head><style>div {background-color: #dbd9d9; width: 300px; border: 7px solid #3FB8AF; padding: 20px; margin: 20px;}</style></head><body><center><div><i><font size='4'>44% of the tiklets are hullaw.</font></i></div></center><h2>Most of the tiklets are hullaw.</h2></body>,True,NULL,1599
1572949681,b6db334aadbb75e62a185a38b738e122,Question2,65,0,Test-Some-3-spunge-wenple,NULL,<head><style>div {background-color: #dbd9d9; width: 300px; border: 7px solid #3FB8AF; padding: 20px; margin: 20px;}</style></head><body><center><div><i><font size='4'>3% of the spunges are wenple.</font></i></div></center><h2>Some of the spunges are wenple.</h2></body>,True,NULL,2598
1572949681,b6db334aadbb75e62a185a38b738e122,Question2,74,0,Test-All-46-hadder-ollidy,NULL,<head><style>div {background-color: #dbd9d9; width: 300px; border: 7px solid #3FB8AF; padding: 20px; margin: 20px;}</style></head><body><center><div><i><font size='4'>46% of the hadders are ollidy.</font></i></div></center><h2>All of the hadders are ollidy.</h2></body>,False,NULL,2790
1572949681,b6db334aadbb75e62a185a38b738e122,Question2,141,0,Test-Some-Neg-82-padnet-fanely,NULL,<head><style>div {background-color: #dbd9d9; width: 300px; border: 7px solid #3FB8AF; padding: 20px; margin: 20px;}</style></head><body><center><div><i><font size='4'>82% of the padnets are fanely.</font></i></div></center><h2>It is not the case that some of the padnets are fanely.</h2></body>,True,NULL,1662
1572949681,b6db334aadbb75e62a185a38b738e122,Question2,10,0,Test-Most-6-chadop-shaple,NULL,<head><style>div {background-color: #dbd9d9; width: 300px; border: 7px solid #3FB8AF; padding: 20px; margin: 20px;}</style></head><body><center><div><i><font size='4'>6% of the chadops are shaple.</font></i></div></center><h2>Most of the chadops are shaple.</h2></body>,False,NULL,11854
1572949681,b6db334aadbb75e62a185a38b738e122,Question2,115,0,Test-Some-Neg-29-coamin-mucond,NULL,<head><style>div {background-color: #dbd9d9; width: 300px; border: 7px solid #3FB8AF; padding: 20px; margin: 20px;}</style></head><body><center><div><i><font size='4'>29% of the coamins are mucond.</font></i></div></center><h2>It is not the case that some of the coamins are mucond.</h2></body>,False,NULL,1974
1572949681,b6db334aadbb75e62a185a38b738e122,Question2,77,0,Test-Some-49-shurrie-preser,NULL,<head><style>div {background-color: #dbd9d9; width: 300px; border: 7px solid #3FB8AF; padding: 20px; margin: 20px;}</style></head><body><center><div><i><font size='4'>49% of the shurries are preser.</font></i></div></center><h2>Some of the shurries are preser.</h2></body>,True,NULL,1510
1572949681,b6db334aadbb75e62a185a38b738e122,Question2,54,0,Test-Most-96-ingell-nalill,NULL,<head><style>div {background-color: #dbd9d9; width: 300px; border: 7px solid #3FB8AF; padding: 20px; margin: 20px;}</style></head><body><center><div><i><font size='4'>96% of the ingells are nalill.</font></i></div></center><h2>Most of the ingells are nalill.</h2></body>,True,NULL,1303
1572949681,b6db334aadbb75e62a185a38b738e122,Question2,44,0,Test-Most-77-pirter-secent,NULL,<head><style>div {background-color: #dbd9d9; width: 300px; border: 7px solid #3FB8AF; padding: 20px; margin: 20px;}</style></head><body><center><div><i><font size='4'>77% of the pirters are secent.</font></i></div></center><h2>Most of the pirters are secent.</h2></body>,True,NULL,895
1572949681,b6db334aadbb75e62a185a38b738e122,Question2,20,0,Test-Most-29-coamin-mucond,NULL,<head><style>div {background-color: #dbd9d9; width: 300px; border: 7px solid #3FB8AF; padding: 20px; margin: 20px;}</style></head><body><center><div><i><font size='4'>29% of the coamins are mucond.</font></i></div></center><h2>Most of the coamins are mucond.</h2></body>,False,NULL,1327
1572949681,b6db334aadbb75e62a185a38b738e122,Question2,56,0,Test-All-17-kustle-reshix,NULL,<head><style>div {background-color: #dbd9d9; width: 300px; border: 7px solid #3FB8AF; padding: 20px; margin: 20px;}</style></head><body><center><div><i><font size='4'>17% of the kustles are reshix.</font></i></div></center><h2>All of the kustles are reshix.</h2></body>,False,NULL,1502
1572949681,b6db334aadbb75e62a185a38b738e122,Question2,103,0,Test-Some-Neg-21-beckel-racual,NULL,<head><style>div {background-color: #dbd9d9; width: 300px; border: 7px solid #3FB8AF; padding: 20px; margin: 20px;}</style></head><body><center><div><i><font size='4'>21% of the beckels are racual.</font></i></div></center><h2>It is not the case that some of the beckels are racual.</h2></body>,True,NULL,1135
1572949681,b6db334aadbb75e62a185a38b738e122,Question2,61,0,Test-Some-15-mecket-plumry,NULL,<head><style>div {background-color: #dbd9d9; width: 300px; border: 7px solid #3FB8AF; padding: 20px; margin: 20px;}</style></head><body><center><div><i><font size='4'>15% of the meckets are plumry.</font></i></div></center><h2>Some of the meckets are plumry.</h2></body>,True,NULL,3134
1572949681,b6db334aadbb75e62a185a38b738e122,Question2,17,0,Test-Most-11-spunge-wenple,NULL,<head><style>div {background-color: #dbd9d9; width: 300px; border: 7px solid #3FB8AF; padding: 20px; margin: 20px;}</style></head><body><center><div><i><font size='4'>11% of the spunges are wenple.</font></i></div></center><h2>Most of the spunges are wenple.</h2></body>,False,NULL,1422
1572949681,b6db334aadbb75e62a185a38b738e122,Question2,107,0,Test-Some-Neg-24-werner-hurmer,NULL,<head><style>div {background-color: #dbd9d9; width: 300px; border: 7px solid #3FB8AF; padding: 20px; margin: 20px;}</style></head><body><center><div><i><font size='4'>24% of the werners are hurmer.</font></i></div></center><h2>It is not the case that some of the werners are hurmer.</h2></body>,True,NULL,4111
1572949681,b6db334aadbb75e62a185a38b738e122,Question2,85,0,Test-Some-68-birler-enciad,NULL,<head><style>div {background-color: #dbd9d9; width: 300px; border: 7px solid #3FB8AF; padding: 20px; margin: 20px;}</style></head><body><center><div><i><font size='4'>68% of the birlers are enciad.</font></i></div></center><h2>Some of the birlers are enciad.</h2></body>,True,NULL,2134
1572949681,b6db334aadbb75e62a185a38b738e122,Question2,59,0,Test-Some-4-chulk-vulhor,NULL,<head><style>div {background-color: #dbd9d9; width: 300px; border: 7px solid #3FB8AF; padding: 20px; margin: 20px;}</style></head><body><center><div><i><font size='4'>4% of the chulks are vulhor.</font></i></div></center><h2>Some of the chulks are vulhor.</h2></body>,True,NULL,1466
1572949681,b6db334aadbb75e62a185a38b738e122,Question2,48,0,Test-Most-86-devole-sholly,NULL,<head><style>div {background-color: #dbd9d9; width: 300px; border: 7px solid #3FB8AF; padding: 20px; margin: 20px;}</style></head><body><center><div><i><font size='4'>86% of the devoles are sholly.</font></i></div></center><h2>Most of the devoles are sholly.</h2></body>,True,NULL,1159
1572949681,b6db334aadbb75e62a185a38b738e122,Question2,102,0,Test-All-94-awplor-fasees,NULL,<head><style>div {background-color: #dbd9d9; width: 300px; border: 7px solid #3FB8AF; padding: 20px; margin: 20px;}</style></head><body><center><div><i><font size='4'>94% of the awplors are fasees.</font></i></div></center><h2>All of the awplors are fasees.</h2></body>,False,NULL,1366
1572949681,b6db334aadbb75e62a185a38b738e122,Question2,23,0,Test-Most-46-ancit-smeath,NULL,<head><style>div {background-color: #dbd9d9; width: 300px; border: 7px solid #3FB8AF; padding: 20px; margin: 20px;}</style></head><body><center><div><i><font size='4'>46% of the ancits are smeath.</font></i></div></center><h2>Most of the ancits are smeath.</h2></body>,True,NULL,6071
1572949681,b6db334aadbb75e62a185a38b738e122,Question2,46,0,Test-Most-81-padnet-fanely,NULL,<head><style>div {background-color: #dbd9d9; width: 300px; border: 7px solid #3FB8AF; padding: 20px; margin: 20px;}</style></head><body><center><div><i><font size='4'>81% of the padnets are fanely.</font></i></div></center><h2>Most of the padnets are fanely.</h2></body>,True,NULL,19215
1572949681,b6db334aadbb75e62a185a38b738e122,Question2,92,0,Test-All-97-sporer-firtly,NULL,<head><style>div {background-color: #dbd9d9; width: 300px; border: 7px solid #3FB8AF; padding: 20px; margin: 20px;}</style></head><body><center><div><i><font size='4'>97% of the sporers are firtly.</font></i></div></center><h2>All of the sporers are firtly.</h2></body>,True,NULL,1767
1572949681,b6db334aadbb75e62a185a38b738e122,Question2,144,0,Test-All-Neg-84-devole-sholly,NULL,<head><style>div {background-color: #dbd9d9; width: 300px; border: 7px solid #3FB8AF; padding: 20px; margin: 20px;}</style></head><body><center><div><i><font size='4'>84% of the devoles are sholly.</font></i></div></center><h2>It is not the case that all of the devoles are sholly.</h2></body>,False,NULL,1573
1572949681,b6db334aadbb75e62a185a38b738e122,Question2,91,0,Test-Some-90-sporer-firtly,NULL,<head><style>div {background-color: #dbd9d9; width: 300px; border: 7px solid #3FB8AF; padding: 20px; margin: 20px;}</style></head><body><center><div><i><font size='4'>90% of the sporers are firtly.</font></i></div></center><h2>Some of the sporers are firtly.</h2></body>,False,NULL,2758
1572949681,b6db334aadbb75e62a185a38b738e122,Question2,120,0,Test-All-Neg-33-pengyl-sedest,NULL,<head><style>div {background-color: #dbd9d9; width: 300px; border: 7px solid #3FB8AF; padding: 20px; margin: 20px;}</style></head><body><center><div><i><font size='4'>33% of the pengyls are sedest.</font></i></div></center><h2>It is not the case that all of the pengyls are sedest.</h2></body>,True,NULL,1710
1572949681,b6db334aadbb75e62a185a38b738e122,Question2,38,0,Test-Most-71-raster-movell,NULL,<head><style>div {background-color: #dbd9d9; width: 300px; border: 7px solid #3FB8AF; padding: 20px; margin: 20px;}</style></head><body><center><div><i><font size='4'>71% of the rasters are movell.</font></i></div></center><h2>Most of the rasters are movell.</h2></body>,True,NULL,927
1572949681,b6db334aadbb75e62a185a38b738e122,Question2,146,0,Test-All-Neg-80-dorder-coggon,NULL,<head><style>div {background-color: #dbd9d9; width: 300px; border: 7px solid #3FB8AF; padding: 20px; margin: 20px;}</style></head><body><center><div><i><font size='4'>80% of the dorders are coggon.</font></i></div></center><h2>It is not the case that all of the dorders are coggon.</h2></body>,False,NULL,1655
1572949681,b6db334aadbb75e62a185a38b738e122,Question2,58,0,Test-All-16-puggle-entand,NULL,<head><style>div {background-color: #dbd9d9; width: 300px; border: 7px solid #3FB8AF; padding: 20px; margin: 20px;}</style></head><body><center><div><i><font size='4'>16% of the puggles are entand.</font></i></div></center><h2>All of the puggles are entand.</h2></body>,False,NULL,1591
1572949681,b6db334aadbb75e62a185a38b738e122,Question2,126,0,Test-All-Neg-44-monter-melelt,NULL,<head><style>div {background-color: #dbd9d9; width: 300px; border: 7px solid #3FB8AF; padding: 20px; margin: 20px;}</style></head><body><center><div><i><font size='4'>44% of the monters are melelt.</font></i></div></center><h2>It is not the case that all of the monters are melelt.</h2></body>,False,NULL,1839
1572949681,b6db334aadbb75e62a185a38b738e122,Question2,121,0,Test-Some-Neg-31-zetten-unfobs,NULL,<head><style>div {background-color: #dbd9d9; width: 300px; border: 7px solid #3FB8AF; padding: 20px; margin: 20px;}</style></head><body><center><div><i><font size='4'>31% of the zettens are unfobs.</font></i></div></center><h2>It is not the case that some of the zettens are unfobs.</h2></body>,False,NULL,863
1572949681,b6db334aadbb75e62a185a38b738e122,Question2,84,0,Test-All-62-cather-funder,NULL,<head><style>div {background-color: #dbd9d9; width: 300px; border: 7px solid #3FB8AF; padding: 20px; margin: 20px;}</style></head><body><center><div><i><font size='4'>62% of the cathers are funder.</font></i></div></center><h2>All of the cathers are funder.</h2></body>,False,NULL,1070
1572949681,b6db334aadbb75e62a185a38b738e122,Question2,125,0,Test-Some-Neg-28-monter-melelt,NULL,<head><style>div {background-color: #dbd9d9; width: 300px; border: 7px solid #3FB8AF; padding: 20px; margin: 20px;}</style></head><body><center><div><i><font size='4'>28% of the monters are melelt.</font></i></div></center><h2>It is not the case that some of the monters are melelt.</h2></body>,False,NULL,1199
1572949681,b6db334aadbb75e62a185a38b738e122,Question2,108,0,Test-All-Neg-24-werner-hurmer,NULL,<head><style>div {background-color: #dbd9d9; width: 300px; border: 7px solid #3FB8AF; padding: 20px; margin: 20px;}</style></head><body><center><div><i><font size='4'>24% of the werners are hurmer.</font></i></div></center><h2>It is not the case that all of the werners are hurmer.</h2></body>,False,NULL,807
1572949681,b6db334aadbb75e62a185a38b738e122,Question2,136,0,Test-All-Neg-59-bamet-unzast,NULL,<head><style>div {background-color: #dbd9d9; width: 300px; border: 7px solid #3FB8AF; padding: 20px; margin: 20px;}</style></head><body><center><div><i><font size='4'>59% of the bamets are unzast.</font></i></div></center><h2>It is not the case that all of the bamets are unzast.</h2></body>,True,NULL,1295
1572949681,b6db334aadbb75e62a185a38b738e122,Question2,143,0,Test-Some-Neg-79-devole-sholly,NULL,<head><style>div {background-color: #dbd9d9; width: 300px; border: 7px solid #3FB8AF; padding: 20px; margin: 20px;}</style></head><body><center><div><i><font size='4'>79% of the devoles are sholly.</font></i></div></center><h2>It is not the case that some of the devoles are sholly.</h2></body>,True,NULL,975
1572949681,b6db334aadbb75e62a185a38b738e122,Question2,100,0,Test-All-76-puctor-recure,NULL,<head><style>div {background-color: #dbd9d9; width: 300px; border: 7px solid #3FB8AF; padding: 20px; margin: 20px;}</style></head><body><center><div><i><font size='4'>76% of the puctors are recure.</font></i></div></center><h2>All of the puctors are recure.</h2></body>,False,NULL,1503
1572949681,b6db334aadbb75e62a185a38b738e122,Question2,76,0,Test-All-30-fleeve-scalfs,NULL,<head><style>div {background-color: #dbd9d9; width: 300px; border: 7px solid #3FB8AF; padding: 20px; margin: 20px;}</style></head><body><center><div><i><font size='4'>30% of the fleeves are scalfs.</font></i></div></center><h2>All of the fleeves are scalfs.</h2></body>,False,NULL,1135
1572949681,b6db334aadbb75e62a185a38b738e122,Question2,114,0,Test-All-Neg-3-shrile-athoid,NULL,<head><style>div {background-color: #dbd9d9; width: 300px; border: 7px solid #3FB8AF; padding: 20px; margin: 20px;}</style></head><body><center><div><i><font size='4'>3% of the shriles are athoid.</font></i></div></center><h2>It is not the case that all of the shriles are athoid.</h2></body>,False,NULL,879
1572949681,b6db334aadbb75e62a185a38b738e122,Question2,130,0,Test-All-Neg-61-russer-huttle,NULL,<head><style>div {background-color: #dbd9d9; width: 300px; border: 7px solid #3FB8AF; padding: 20px; margin: 20px;}</style></head><body><center><div><i><font size='4'>61% of the russers are huttle.</font></i></div></center><h2>It is not the case that all of the russers are huttle.</h2></body>,True,NULL,927
1572949681,b6db334aadbb75e62a185a38b738e122,Question2,133,0,Test-Some-Neg-70-raster-movell,NULL,<head><style>div {background-color: #dbd9d9; width: 300px; border: 7px solid #3FB8AF; padding: 20px; margin: 20px;}</style></head><body><center><div><i><font size='4'>70% of the rasters are movell.</font></i></div></center><h2>It is not the case that some of the rasters are movell.</h2></body>,False,NULL,3287
1572949681,b6db334aadbb75e62a185a38b738e122,Question2,53,0,Test-Most-84-awplor-fasees,NULL,<head><style>div {background-color: #dbd9d9; width: 300px; border: 7px solid #3FB8AF; padding: 20px; margin: 20px;}</style></head><body><center><div><i><font size='4'>84% of the awplors are fasees.</font></i></div></center><h2>Most of the awplors are fasees.</h2></body>,True,NULL,727
1572949681,b6db334aadbb75e62a185a38b738e122,Question2,14,0,Test-Most-7-gukbar-soarse,NULL,<head><style>div {background-color: #dbd9d9; width: 300px; border: 7px solid #3FB8AF; padding: 20px; margin: 20px;}</style></head><body><center><div><i><font size='4'>7% of the gukbars are soarse.</font></i></div></center><h2>Most of the gukbars are soarse.</h2></body>,False,NULL,1254
1572949681,b6db334aadbb75e62a185a38b738e122,Question2,111,0,Test-Some-Neg-1-schook-jabant,NULL,<head><style>div {background-color: #dbd9d9; width: 300px; border: 7px solid #3FB8AF; padding: 20px; margin: 20px;}</style></head><body><center><div><i><font size='4'>1% of the schooks are jabant.</font></i></div></center><h2>It is not the case that some of the schooks are jabant.</h2></body>,True,NULL,1175
1572949681,b6db334aadbb75e62a185a38b738e122,Question2,142,0,Test-All-Neg-89-padnet-fanely,NULL,<head><style>div {background-color: #dbd9d9; width: 300px; border: 7px solid #3FB8AF; padding: 20px; margin: 20px;}</style></head><body><center><div><i><font size='4'>89% of the padnets are fanely.</font></i></div></center><h2>It is not the case that all of the padnets are fanely.</h2></body>,False,NULL,1909
1572949681,b6db334aadbb75e62a185a38b738e122,Question2,55,0,Test-Some-19-kustle-reshix,NULL,<head><style>div {background-color: #dbd9d9; width: 300px; border: 7px solid #3FB8AF; padding: 20px; margin: 20px;}</style></head><body><center><div><i><font size='4'>19% of the kustles are reshix.</font></i></div></center><h2>Some of the kustles are reshix.</h2></body>,False,NULL,1278
1572949681,b6db334aadbb75e62a185a38b738e122,Question2,148,0,Test-All-Neg-92-chevel-podden,NULL,<head><style>div {background-color: #dbd9d9; width: 300px; border: 7px solid #3FB8AF; padding: 20px; margin: 20px;}</style></head><body><center><div><i><font size='4'>92% of the chevels are podden.</font></i></div></center><h2>It is not the case that all of the chevels are podden.</h2></body>,False,NULL,2830
1572949681,b6db334aadbb75e62a185a38b738e122,Question2,147,0,Test-Some-Neg-95-chevel-podden,NULL,<head><style>div {background-color: #dbd9d9; width: 300px; border: 7px solid #3FB8AF; padding: 20px; margin: 20px;}</style></head><body><center><div><i><font size='4'>95% of the chevels are podden.</font></i></div></center><h2>It is not the case that some of the chevels are podden.</h2></body>,False,NULL,1182
1572949681,b6db334aadbb75e62a185a38b738e122,Question2,119,0,Test-Some-Neg-37-pengyl-sedest,NULL,<head><style>div {background-color: #dbd9d9; width: 300px; border: 7px solid #3FB8AF; padding: 20px; margin: 20px;}</style></head><body><center><div><i><font size='4'>37% of the pengyls are sedest.</font></i></div></center><h2>It is not the case that some of the pengyls are sedest.</h2></body>,True,NULL,3774
1572949681,b6db334aadbb75e62a185a38b738e122,Question2,45,0,Test-Most-99-pobbit-spippy,NULL,<head><style>div {background-color: #dbd9d9; width: 300px; border: 7px solid #3FB8AF; padding: 20px; margin: 20px;}</style></head><body><center><div><i><font size='4'>99% of the pobbits are spippy.</font></i></div></center><h2>Most of the pobbits are spippy.</h2></body>,True,NULL,3614
1572949681,b6db334aadbb75e62a185a38b738e122,Question2,123,0,Test-Some-Neg-35-tiklet-hullaw,NULL,<head><style>div {background-color: #dbd9d9; width: 300px; border: 7px solid #3FB8AF; padding: 20px; margin: 20px;}</style></head><body><center><div><i><font size='4'>35% of the tiklets are hullaw.</font></i></div></center><h2>It is not the case that some of the tiklets are hullaw.</h2></body>,True,NULL,1742
1572949681,b6db334aadbb75e62a185a38b738e122,Question2,51,0,Test-Most-93-puctor-recure,NULL,<head><style>div {background-color: #dbd9d9; width: 300px; border: 7px solid #3FB8AF; padding: 20px; margin: 20px;}</style></head><body><center><div><i><font size='4'>93% of the puctors are recure.</font></i></div></center><h2>Most of the puctors are recure.</h2></body>,True,NULL,1366
1572949681,b6db334aadbb75e62a185a38b738e122,Question2,97,0,Test-Some-76-jallem-sildal,NULL,<head><style>div {background-color: #dbd9d9; width: 300px; border: 7px solid #3FB8AF; padding: 20px; margin: 20px;}</style></head><body><center><div><i><font size='4'>76% of the jallems are sildal.</font></i></div></center><h2>Some of the jallems are sildal.</h2></body>,True,NULL,606
1572949681,b6db334aadbb75e62a185a38b738e122,Question2,43,0,Test-Most-92-sporer-firtly,NULL,<head><style>div {background-color: #dbd9d9; width: 300px; border: 7px solid #3FB8AF; padding: 20px; margin: 20px;}</style></head><body><center><div><i><font size='4'>92% of the sporers are firtly.</font></i></div></center><h2>Most of the sporers are firtly.</h2></body>,True,NULL,822
1572949681,b6db334aadbb75e62a185a38b738e122,Question2,101,0,Test-Some-80-awplor-fasees,NULL,<head><style>div {background-color: #dbd9d9; width: 300px; border: 7px solid #3FB8AF; padding: 20px; margin: 20px;}</style></head><body><center><div><i><font size='4'>80% of the awplors are fasees.</font></i></div></center><h2>Some of the awplors are fasees.</h2></body>,True,NULL,1982
1572949681,b6db334aadbb75e62a185a38b738e122,Question2,68,0,Test-All-25-cosut-spover,NULL,<head><style>div {background-color: #dbd9d9; width: 300px; border: 7px solid #3FB8AF; padding: 20px; margin: 20px;}</style></head><body><center><div><i><font size='4'>25% of the cosuts are spover.</font></i></div></center><h2>All of the cosuts are spover.</h2></body>,True,NULL,878
1572949681,b6db334aadbb75e62a185a38b738e122,Question2,90,0,Test-All-70-pliper-sesare,NULL,<head><style>div {background-color: #dbd9d9; width: 300px; border: 7px solid #3FB8AF; padding: 20px; margin: 20px;}</style></head><body><center><div><i><font size='4'>70% of the plipers are sesare.</font></i></div></center><h2>All of the plipers are sesare.</h2></body>,True,NULL,1454
1572949681,b6db334aadbb75e62a185a38b738e122,Question2,131,0,Test-Some-Neg-64-tecker-biller,NULL,<head><style>div {background-color: #dbd9d9; width: 300px; border: 7px solid #3FB8AF; padding: 20px; margin: 20px;}</style></head><body><center><div><i><font size='4'>64% of the teckers are biller.</font></i></div></center><h2>It is not the case that some of the teckers are biller.</h2></body>,True,NULL,5414
1572949681,b6db334aadbb75e62a185a38b738e122,Question2,134,0,Test-All-Neg-74-raster-movell,NULL,<head><style>div {background-color: #dbd9d9; width: 300px; border: 7px solid #3FB8AF; padding: 20px; margin: 20px;}</style></head><body><center><div><i><font size='4'>74% of the rasters are movell.</font></i></div></center><h2>It is not the case that all of the rasters are movell.</h2></body>,False,NULL,4142
1572949681,b6db334aadbb75e62a185a38b738e122,Question2,22,0,Test-Most-37-middor-drooty,NULL,<head><style>div {background-color: #dbd9d9; width: 300px; border: 7px solid #3FB8AF; padding: 20px; margin: 20px;}</style></head><body><center><div><i><font size='4'>37% of the middors are drooty.</font></i></div></center><h2>Most of the middors are drooty.</h2></body>,True,NULL,2590
1572949681,b6db334aadbb75e62a185a38b738e122,Question2,27,0,Test-Most-34-fleeve-scalfs,NULL,<head><style>div {background-color: #dbd9d9; width: 300px; border: 7px solid #3FB8AF; padding: 20px; margin: 20px;}</style></head><body><center><div><i><font size='4'>34% of the fleeves are scalfs.</font></i></div></center><h2>Most of the fleeves are scalfs.</h2></body>,False,NULL,2654
1572949681,b6db334aadbb75e62a185a38b738e122,Question2,13,0,Test-Most-20-mecket-plumry,NULL,<head><style>div {background-color: #dbd9d9; width: 300px; border: 7px solid #3FB8AF; padding: 20px; margin: 20px;}</style></head><body><center><div><i><font size='4'>20% of the meckets are plumry.</font></i></div></center><h2>Most of the meckets are plumry.</h2></body>,False,NULL,1006
1572949681,b6db334aadbb75e62a185a38b738e122,Question2,149,0,Test-Some-Neg-87-ingell-nalill,NULL,<head><style>div {background-color: #dbd9d9; width: 300px; border: 7px solid #3FB8AF; padding: 20px; margin: 20px;}</style></head><body><center><div><i><font size='4'>87% of the ingells are nalill.</font></i></div></center><h2>It is not the case that some of the ingells are nalill.</h2></body>,False,NULL,3445
1572949681,b6db334aadbb75e62a185a38b738e122,Question2,122,0,Test-All-Neg-28-zetten-unfobs,NULL,<head><style>div {background-color: #dbd9d9; width: 300px; border: 7px solid #3FB8AF; padding: 20px; margin: 20px;}</style></head><body><center><div><i><font size='4'>28% of the zettens are unfobs.</font></i></div></center><h2>It is not the case that all of the zettens are unfobs.</h2></body>,False,NULL,2894
1572949681,b6db334aadbb75e62a185a38b738e122,Question2,70,0,Test-All-39-shamer-bloif,NULL,<head><style>div {background-color: #dbd9d9; width: 300px; border: 7px solid #3FB8AF; padding: 20px; margin: 20px;}</style></head><body><center><div><i><font size='4'>39% of the shamers are bloif.</font></i></div></center><h2>All of the shamers are bloif.</h2></body>,False,NULL,5350
1572949681,b6db334aadbb75e62a185a38b738e122,Question2,139,0,Test-Some-Neg-93-pirter-secent,NULL,<head><style>div {background-color: #dbd9d9; width: 300px; border: 7px solid #3FB8AF; padding: 20px; margin: 20px;}</style></head><body><center><div><i><font size='4'>93% of the pirters are secent.</font></i></div></center><h2>It is not the case that some of the pirters are secent.</h2></body>,True,NULL,5742
1572949681,b6db334aadbb75e62a185a38b738e122,Question2,104,0,Test-All-Neg-11-beckel-racual,NULL,<head><style>div {background-color: #dbd9d9; width: 300px; border: 7px solid #3FB8AF; padding: 20px; margin: 20px;}</style></head><body><center><div><i><font size='4'>11% of the beckels are racual.</font></i></div></center><h2>It is not the case that all of the beckels are racual.</h2></body>,False,NULL,1734
1572949681,b6db334aadbb75e62a185a38b738e122,Question2,79,0,Test-Some-52-strant-potind,NULL,<head><style>div {background-color: #dbd9d9; width: 300px; border: 7px solid #3FB8AF; padding: 20px; margin: 20px;}</style></head><body><center><div><i><font size='4'>52% of the strants are potind.</font></i></div></center><h2>Some of the strants are potind.</h2></body>,True,NULL,1038
1572949681,b6db334aadbb75e62a185a38b738e122,Question2,81,0,Test-Some-59-umpond-marire,NULL,<head><style>div {background-color: #dbd9d9; width: 300px; border: 7px solid #3FB8AF; padding: 20px; margin: 20px;}</style></head><body><center><div><i><font size='4'>59% of the umponds are marire.</font></i></div></center><h2>Some of the umponds are marire.</h2></body>,True,NULL,1686
1572949681,b6db334aadbb75e62a185a38b738e122,Question2,33,0,Test-Most-53-umpond-marire,NULL,<head><style>div {background-color: #dbd9d9; width: 300px; border: 7px solid #3FB8AF; padding: 20px; margin: 20px;}</style></head><body><center><div><i><font size='4'>53% of the umponds are marire.</font></i></div></center><h2>Most of the umponds are marire.</h2></body>,True,NULL,1527
1572949681,b6db334aadbb75e62a185a38b738e122,Question2,7,0,Test-Most-3-kustle-reshix,NULL,<head><style>div {background-color: #dbd9d9; width: 300px; border: 7px solid #3FB8AF; padding: 20px; margin: 20px;}</style></head><body><center><div><i><font size='4'>3% of the kustles are reshix.</font></i></div></center><h2>Most of the kustles are reshix.</h2></body>,True,NULL,622
1572949681,b6db334aadbb75e62a185a38b738e122,Question2,73,0,Test-Some-48-hadder-ollidy,NULL,<head><style>div {background-color: #dbd9d9; width: 300px; border: 7px solid #3FB8AF; padding: 20px; margin: 20px;}</style></head><body><center><div><i><font size='4'>48% of the hadders are ollidy.</font></i></div></center><h2>Some of the hadders are ollidy.</h2></body>,False,NULL,5431
1572949681,b6db334aadbb75e62a185a38b738e122,Question2,88,0,Test-All-69-menner-nandow,NULL,<head><style>div {background-color: #dbd9d9; width: 300px; border: 7px solid #3FB8AF; padding: 20px; margin: 20px;}</style></head><body><center><div><i><font size='4'>69% of the menners are nandow.</font></i></div></center><h2>All of the menners are nandow.</h2></body>,False,NULL,10603
1572949681,b6db334aadbb75e62a185a38b738e122,Question2,89,0,Test-Some-62-pliper-sesare,NULL,<head><style>div {background-color: #dbd9d9; width: 300px; border: 7px solid #3FB8AF; padding: 20px; margin: 20px;}</style></head><body><center><div><i><font size='4'>62% of the plipers are sesare.</font></i></div></center><h2>Some of the plipers are sesare.</h2></body>,True,NULL,9564
1572949681,b6db334aadbb75e62a185a38b738e122,Question2,42,0,Test-Most-73-coppar-hunene,NULL,<head><style>div {background-color: #dbd9d9; width: 300px; border: 7px solid #3FB8AF; padding: 20px; margin: 20px;}</style></head><body><center><div><i><font size='4'>73% of the coppars are hunene.</font></i></div></center><h2>Most of the coppars are hunene.</h2></body>,True,NULL,1455
1572949681,b6db334aadbb75e62a185a38b738e122,Question2,29,0,Test-Most-33-shurrie-preser,NULL,<head><style>div {background-color: #dbd9d9; width: 300px; border: 7px solid #3FB8AF; padding: 20px; margin: 20px;}</style></head><body><center><div><i><font size='4'>33% of the shurries are preser.</font></i></div></center><h2>Most of the shurries are preser.</h2></body>,True,NULL,2914
1572949681,b6db334aadbb75e62a185a38b738e122,Question2,9,0,Test-Most-12-puggle-entand,NULL,<head><style>div {background-color: #dbd9d9; width: 300px; border: 7px solid #3FB8AF; padding: 20px; margin: 20px;}</style></head><body><center><div><i><font size='4'>12% of the puggles are entand.</font></i></div></center><h2>Most of the puggles are entand.</h2></body>,False,NULL,1175
1572949681,b6db334aadbb75e62a185a38b738e122,Question2,80,0,Test-All-68-strant-potind,NULL,<head><style>div {background-color: #dbd9d9; width: 300px; border: 7px solid #3FB8AF; padding: 20px; margin: 20px;}</style></head><body><center><div><i><font size='4'>68% of the strants are potind.</font></i></div></center><h2>All of the strants are potind.</h2></body>,False,NULL,1170
1572949681,b6db334aadbb75e62a185a38b738e122,Question2,140,0,Test-All-Neg-83-pirter-secent,NULL,<head><style>div {background-color: #dbd9d9; width: 300px; border: 7px solid #3FB8AF; padding: 20px; margin: 20px;}</style></head><body><center><div><i><font size='4'>83% of the pirters are secent.</font></i></div></center><h2>It is not the case that all of the pirters are secent.</h2></body>,True,NULL,1237
1572949681,b6db334aadbb75e62a185a38b738e122,Question2,110,0,Test-All-Neg-0-gukbar-soarse,NULL,<head><style>div {background-color: #dbd9d9; width: 300px; border: 7px solid #3FB8AF; padding: 20px; margin: 20px;}</style></head><body><center><div><i><font size='4'>0% of the gukbars are soarse.</font></i></div></center><h2>It is not the case that all of the gukbars are soarse.</h2></body>,False,NULL,3799
1572949681,b6db334aadbb75e62a185a38b738e122,Question2,26,0,Test-Most-41-zetten-unfobs,NULL,<head><style>div {background-color: #dbd9d9; width: 300px; border: 7px solid #3FB8AF; padding: 20px; margin: 20px;}</style></head><body><center><div><i><font size='4'>41% of the zettens are unfobs.</font></i></div></center><h2>Most of the zettens are unfobs.</h2></body>,False,NULL,1664
1572949681,b6db334aadbb75e62a185a38b738e122,Question2,66,0,Test-All-2-spunge-wenple,NULL,<head><style>div {background-color: #dbd9d9; width: 300px; border: 7px solid #3FB8AF; padding: 20px; margin: 20px;}</style></head><body><center><div><i><font size='4'>2% of the spunges are wenple.</font></i></div></center><h2>All of the spunges are wenple.</h2></body>,True,NULL,1392
1572949681,b6db334aadbb75e62a185a38b738e122,Question2,35,0,Test-Most-67-cather-funder,NULL,<head><style>div {background-color: #dbd9d9; width: 300px; border: 7px solid #3FB8AF; padding: 20px; margin: 20px;}</style></head><body><center><div><i><font size='4'>67% of the cathers are funder.</font></i></div></center><h2>Most of the cathers are funder.</h2></body>,True,NULL,2787
1572949681,b6db334aadbb75e62a185a38b738e122,Question2,118,0,Test-All-Neg-38-middor-drooty,NULL,<head><style>div {background-color: #dbd9d9; width: 300px; border: 7px solid #3FB8AF; padding: 20px; margin: 20px;}</style></head><body><center><div><i><font size='4'>38% of the middors are drooty.</font></i></div></center><h2>It is not the case that all of the middors are drooty.</h2></body>,True,NULL,1172
